subject,block,trial,temporal,perceptual,spatial,category,trialType,imageNameL,imageNameR,imageNameC,targetflanker,response,accuracy,RT,TimeInitialFix,TimeImagePresented,TimeButtonPress,BlockType,Run,TType
1,1,1,2,1,2,1,0,1_4_5_1.bmp,1_3_5_2.bmp,1_4_5_3.bmp,2,2,0,0.727860835,16.26354033,16.77104519,21.5059596,6,1,0
1,1,2,2,1,2,1,0,1_4_5_1.bmp,1_3_5_2.bmp,1_3_5_3.bmp,1,2,1,0.591684739,22.36092718,16.77104519,23.45765392,6,1,0
1,1,3,2,1,2,1,0,1_4_5_1.bmp,1_3_5_2.bmp,1_5_5_0.bmp,1,2,1,0.424659625,24.43251182,16.77104519,25.36164678,6,1,0
1,1,4,2,1,2,1,1,1_4_5_1.bmp,1_3_5_2.bmp,1_4_4_0.bmp,2,1,1,0.392049016,26.49702065,16.77104519,27.39366909,6,1,0
1,1,5,2,1,2,2,0,2_4_4_0.bmp,2_5_5_0.bmp,2_4_5_2.bmp,2,1,1,0.521319363,28.64805444,29.1549692,33.68128459,6,1,1
1,1,6,2,1,2,2,0,2_4_4_0.bmp,2_5_5_0.bmp,2_3_5_1.bmp,1,2,1,0.39029704,34.72230174,29.1549692,35.61724057,6,1,0
1,1,7,2,1,2,2,0,2_4_4_0.bmp,2_5_5_0.bmp,2_4_5_2.bmp,1,1,0,0.460929824,36.77961068,29.1549692,37.74522916,6,1,0
1,1,8,2,1,2,2,1,2_4_4_0.bmp,2_5_5_0.bmp,2_2_5_2.bmp,1,1,0,0.4926676,38.84380613,29.1549692,39.84105753,6,1,0
1,1,9,2,1,2,3,1,3_1_5_1.bmp,3_4_4_0.bmp,3_4_5_1.bmp,1,2,1,0.574909817,41.06921312,41.57376447,46.15278366,6,1,1
1,1,10,2,1,2,4,0,4_4_4_0.bmp,4_3_3_0.bmp,4_3_4_2.bmp,1,1,0,0.470101032,47.14912497,47.65383797,52.128582,6,1,1
1,1,11,2,1,2,4,0,4_4_4_0.bmp,4_3_3_0.bmp,4_3_5_2.bmp,1,2,1,0.507886145,53.27592224,47.65383797,54.28847542,6,1,0
1,1,12,2,1,2,4,0,4_4_4_0.bmp,4_3_3_0.bmp,4_3_4_1.bmp,1,1,0,0.556709218,55.33893869,47.65383797,56.40044624,6,1,0
1,1,13,2,1,2,4,0,4_4_4_0.bmp,4_3_3_0.bmp,4_3_5_2.bmp,1,2,1,0.572105033,57.39551992,47.65383797,58.47240735,6,1,0
1,1,14,2,1,2,4,0,4_4_4_0.bmp,4_3_3_0.bmp,4_3_4_1.bmp,1,1,0,0.683563875,59.45186227,47.65383797,60.64037261,6,1,0
1,1,15,2,1,2,4,0,4_4_4_0.bmp,4_3_3_0.bmp,4_3_5_2.bmp,1,2,1,0.658101184,61.50964052,47.65383797,62.67224318,6,1,0
1,1,16,2,1,2,4,1,4_4_4_0.bmp,4_3_3_0.bmp,4_3_4_1.bmp,1,1,0,0.698366285,63.56412785,47.65383797,64.76819865,6,1,0
1,1,17,2,1,2,1,0,1_1_1_0.bmp,1_4_4_0.bmp,1_4_5_2.bmp,1,1,0,0.434996914,65.67144607,66.17633273,70.61595641,6,1,1
1,1,18,2,1,2,1,0,1_1_1_0.bmp,1_4_4_0.bmp,1_1_4_2.bmp,2,1,1,0.457384409,71.7418484,66.17633273,72.70388692,6,1,0
1,1,19,2,1,2,1,0,1_1_1_0.bmp,1_4_4_0.bmp,1_4_5_1.bmp,1,1,0,0.595947951,73.80315374,66.17633273,74.90381379,6,1,0
1,1,20,2,1,2,1,1,1_1_1_0.bmp,1_4_4_0.bmp,1_4_5_2.bmp,1,2,1,0.835191071,75.85998584,66.17633273,77.19983583,6,1,0
1,1,21,2,1,2,2,0,2_2_3_3.bmp,2_3_5_1.bmp,2_3_5_3.bmp,1,2,1,0.704505862,77.96974138,78.47448082,83.18357349,6,1,1
1,1,22,2,1,2,2,1,2_2_3_3.bmp,2_3_5_1.bmp,2_2_3_1.bmp,2,1,1,0.558384577,84.04038408,78.47448082,85.10343959,6,1,0
1,1,23,2,1,2,3,0,3_4_5_2.bmp,3_2_3_3.bmp,3_2_3_2.bmp,1,1,0,0.825984709,86.28849645,86.79307574,91.62327229,6,1,1
1,1,24,2,1,2,3,0,3_4_5_2.bmp,3_2_3_3.bmp,3_2_3_1.bmp,1,1,0,0.39490608,92.42801725,86.79307574,93.32713246,6,1,0
1,1,25,2,1,2,3,0,3_4_5_2.bmp,3_2_3_3.bmp,3_2_3_1.bmp,1,1,0,0.376386993,94.49439464,86.79307574,95.37511425,6,1,0
1,1,26,2,1,2,3,0,3_4_5_2.bmp,3_2_3_3.bmp,3_2_3_1.bmp,1,1,0,0.313247654,96.55758055,86.79307574,97.37511094,6,1,0
1,1,27,2,1,2,3,0,3_4_5_2.bmp,3_2_3_3.bmp,3_5_5_0.bmp,2,1,1,0.591076911,98.67176095,86.79307574,99.76693281,6,1,0
1,1,28,2,1,2,3,1,3_4_5_2.bmp,3_2_3_3.bmp,3_2_3_2.bmp,1,1,0,0.484487306,100.809954,86.79307574,101.7988626,6,1,0
1,1,29,2,1,2,4,0,4_2_5_1.bmp,4_1_1_0.bmp,4_1_5_1.bmp,1,1,0,0.624914595,102.9686877,103.4731744,108.1026154,6,1,1
1,1,30,2,1,2,4,0,4_2_5_1.bmp,4_1_1_0.bmp,4_2_2_0.bmp,2,1,1,0.537864134,109.0360695,103.4731744,110.0785532,6,1,0
1,2,1,1,2,2,3,0,3_5_5_0.bmp,3_2_5_2.bmp,3_2_5_2.bmp,2,2,0,0.961043398,127.2473853,127.7523161,132.7177564,4,1,0
1,2,2,1,2,2,3,0,3_5_5_0.bmp,3_2_5_2.bmp,3_5_5_0.bmp,1,1,0,0.499210995,133.3221232,127.7523161,134.3257005,4,1,0
1,2,3,1,2,2,3,0,3_5_5_0.bmp,3_2_5_2.bmp,3_1_5_1.bmp,2,2,0,0.448289217,135.4131244,127.7523161,136.3657429,4,1,0
1,2,4,1,2,2,3,1,3_5_5_0.bmp,3_2_5_2.bmp,3_4_5_1.bmp,2,1,1,0.398231559,137.5590056,127.7523161,138.461641,4,1,0
1,2,5,1,2,2,1,0,1_2_5_1.bmp,1_2_3_1.bmp,1_2_2_0.bmp,2,2,0,0.82076063,139.6832174,140.1879115,145.0133948,4,1,1
1,2,6,1,2,2,1,0,1_2_5_1.bmp,1_2_3_1.bmp,1_2_2_0.bmp,1,2,1,0.462307729,145.7422889,140.1879115,146.7092627,4,1,0
1,2,7,1,2,2,1,0,1_2_5_1.bmp,1_2_3_1.bmp,1_2_2_0.bmp,1,2,1,0.454170099,147.7985171,140.1879115,148.7572896,4,1,0
1,2,8,1,2,2,1,1,1_2_5_1.bmp,1_2_3_1.bmp,1_2_2_0.bmp,2,2,0,0.448892839,149.9074848,140.1879115,150.8611114,4,1,0
1,2,9,1,2,2,2,0,2_5_5_0.bmp,2_2_5_2.bmp,2_1_5_1.bmp,2,1,1,0.728118027,151.9996755,152.5042242,157.2369146,4,1,1
1,2,10,1,2,2,2,0,2_5_5_0.bmp,2_2_5_2.bmp,2_2_5_3.bmp,1,1,0,0.889437427,158.0669678,152.5042242,159.4609382,4,1,0
1,2,11,1,2,2,2,0,2_5_5_0.bmp,2_2_5_2.bmp,2_5_5_0.bmp,1,2,1,0.969396757,160.122885,152.5042242,161.5968103,4,1,0
1,2,12,1,2,2,2,1,2_5_5_0.bmp,2_2_5_2.bmp,2_4_5_2.bmp,2,2,0,0.790821401,162.2214166,152.5042242,163.5167515,4,1,0
1,2,13,1,2,2,1,0,1_4_4_0.bmp,1_2_3_1.bmp,1_2_2_0.bmp,1,2,1,0.617385695,164.2857695,164.7904449,169.412473,4,1,1
1,2,14,1,2,2,1,0,1_4_4_0.bmp,1_2_3_1.bmp,1_2_2_0.bmp,1,2,1,0.624752347,170.3470932,164.7904449,171.4764449,4,1,0
1,2,15,1,2,2,1,0,1_4_4_0.bmp,1_2_3_1.bmp,1_4_5_1.bmp,2,1,1,0.524028,172.4079583,164.7904449,173.4364514,4,1,0
1,2,16,1,2,2,1,1,1_4_4_0.bmp,1_2_3_1.bmp,1_2_2_0.bmp,1,2,1,0.553690206,174.5131252,164.7904449,175.5722526,4,1,0
1,2,17,1,2,2,2,0,2_3_4_1.bmp,2_2_3_2.bmp,2_3_4_3.bmp,2,1,1,0.728036603,176.59064,177.09536,181.8280741,4,1,1
1,2,18,1,2,2,2,0,2_3_4_1.bmp,2_2_3_2.bmp,2_3_3_0.bmp,1,1,0,0.529627653,182.6579558,177.09536,183.6919605,4,1,0
1,2,19,1,2,2,2,0,2_3_4_1.bmp,2_2_3_2.bmp,2_2_3_3.bmp,1,2,1,0.519627479,184.7557101,177.09536,185.7798841,4,1,0
1,2,20,1,2,2,2,1,2_3_4_1.bmp,2_2_3_2.bmp,2_2_3_3.bmp,1,2,1,0.41432474,186.8132314,177.09536,187.7319309,4,1,0
1,2,21,1,2,2,4,0,4_2_3_2.bmp,4_3_3_0.bmp,4_3_3_0.bmp,2,1,1,0.674647156,188.8826564,189.3874835,194.0675783,4,1,1
1,2,22,1,2,2,4,0,4_2_3_2.bmp,4_3_3_0.bmp,4_3_5_1.bmp,1,2,1,0.417264129,194.9538519,189.3874835,195.8755685,4,1,0
1,2,23,1,2,2,4,0,4_2_3_2.bmp,4_3_3_0.bmp,4_2_3_3.bmp,2,2,0,0.413743352,197.0453197,189.3874835,197.9635015,4,1,0
1,2,24,1,2,2,4,1,4_2_3_2.bmp,4_3_3_0.bmp,4_3_3_0.bmp,2,2,0,0.670624612,199.1002968,189.3874835,200.2754686,4,1,0
1,2,25,1,2,2,3,0,3_5_5_0.bmp,3_2_2_0.bmp,3_1_5_1.bmp,2,2,0,0.841931266,201.196154,201.7009881,206.5472685,4,1,1
1,2,26,1,2,2,3,0,3_5_5_0.bmp,3_2_2_0.bmp,3_4_5_2.bmp,2,1,1,0.475378894,207.2953974,201.7009881,208.2751035,4,1,0
1,2,27,1,2,2,3,0,3_5_5_0.bmp,3_2_2_0.bmp,3_2_4_1.bmp,1,1,0,0.393522466,209.4334553,201.7009881,210.3310018,4,1,0
1,2,28,1,2,2,3,1,3_5_5_0.bmp,3_2_2_0.bmp,3_2_4_2.bmp,1,2,1,0.478581185,211.5321494,201.7009881,212.5150431,4,1,0
1,2,29,1,2,2,4,0,4_2_4_3.bmp,4_1_2_1.bmp,4_2_4_1.bmp,2,1,1,0.534944875,213.6066449,214.1112557,218.6507979,4,1,1
1,2,30,1,2,2,4,0,4_2_4_3.bmp,4_1_2_1.bmp,4_2_4_1.bmp,2,1,1,0.383940531,219.6660697,214.1112557,220.5547193,4,1,0
1,3,1,2,2,2,2,0,2_3_5_3.bmp,2_3_4_3.bmp,2_3_5_2.bmp,2,1,1,0.500745439,237.8558308,238.360551,242.8658772,8,1,0
1,3,2,2,2,2,2,0,2_3_5_3.bmp,2_3_4_3.bmp,2_3_5_1.bmp,2,1,1,0.470133482,243.923093,238.360551,244.8978464,8,1,0
1,3,3,2,2,2,2,1,2_3_5_3.bmp,2_3_4_3.bmp,2_3_5_1.bmp,2,1,1,0.399569202,246.0096021,238.360551,246.9137914,8,1,0
1,3,4,2,2,2,3,0,3_1_2_1.bmp,3_4_4_0.bmp,3_1_2_3.bmp,2,1,1,0.636994245,248.2159119,248.7204638,253.3614887,8,1,1
1,3,5,2,2,2,3,0,3_1_2_1.bmp,3_4_4_0.bmp,3_1_2_3.bmp,2,1,1,0.424959784,254.2881861,248.7204638,255.2174556,8,1,0
1,3,6,2,2,2,3,1,3_1_2_1.bmp,3_4_4_0.bmp,3_1_1_0.bmp,2,1,1,0.601504638,256.3996404,248.7204638,257.5053911,8,1,0
1,3,7,2,2,2,2,0,2_4_5_3.bmp,2_3_3_0.bmp,2_4_5_2.bmp,2,1,1,0.672486556,258.5154466,259.0201773,263.6971696,8,1,1
1,3,8,2,2,2,2,0,2_4_5_3.bmp,2_3_3_0.bmp,2_3_4_2.bmp,1,1,0,0.618904515,264.6058066,259.0201773,265.7290801,8,1,0
1,3,9,2,2,2,2,0,2_4_5_3.bmp,2_3_3_0.bmp,2_4_5_1.bmp,2,1,1,0.488196471,266.6643012,259.0201773,267.6570688,8,1,0
1,3,10,2,2,2,2,0,2_4_5_3.bmp,2_3_3_0.bmp,2_4_5_2.bmp,2,1,1,0.631639466,268.7528656,259.0201773,269.8890303,8,1,0
1,3,11,2,2,2,2,1,2_4_5_3.bmp,2_3_3_0.bmp,2_3_5_2.bmp,1,2,1,1.085916529,270.8105021,259.0201773,272.4009315,8,1,0
1,3,12,2,2,2,1,0,1_1_2_1.bmp,1_4_4_0.bmp,1_4_5_1.bmp,1,2,1,0.587572658,272.9038859,273.4086157,278.0007217,8,1,1
1,3,13,2,2,2,1,0,1_1_2_1.bmp,1_4_4_0.bmp,1_1_2_3.bmp,2,1,1,0.486233273,278.9699715,273.4086157,279.96077,8,1,0
1,3,14,2,2,2,1,0,1_1_2_1.bmp,1_4_4_0.bmp,1_1_1_0.bmp,2,1,1,0.527420182,281.0726978,273.4086157,282.1045116,8,1,0
1,3,15,2,2,2,1,1,1_1_2_1.bmp,1_4_4_0.bmp,1_4_5_2.bmp,1,2,1,0.521450964,283.1345864,273.4086157,284.1603958,8,1,0
1,3,16,2,2,2,3,0,3_1_4_2.bmp,3_4_4_0.bmp,3_1_4_3.bmp,2,2,0,0.441990997,285.2974087,285.8020499,290.2481845,8,1,1
1,3,17,2,2,2,3,0,3_1_4_2.bmp,3_4_4_0.bmp,3_4_5_2.bmp,1,2,1,0.518251978,291.3936556,285.8020499,292.4161927,8,1,0
1,3,18,2,2,2,3,0,3_1_4_2.bmp,3_4_4_0.bmp,3_4_4_0.bmp,2,2,0,0.449104362,293.4949688,285.8020499,294.4481513,8,1,0
1,3,19,2,2,2,3,1,3_1_4_2.bmp,3_4_4_0.bmp,3_4_5_2.bmp,1,1,0,0.465075556,295.5587115,285.8020499,296.5279724,8,1,0
1,3,20,2,2,2,4,0,4_3_3_0.bmp,4_1_3_3.bmp,4_3_4_1.bmp,2,1,1,0.886010092,297.7405177,298.245292,303.1357885,8,1,1
1,3,21,2,2,2,4,1,4_3_3_0.bmp,4_1_3_3.bmp,4_1_3_1.bmp,1,2,1,0.534819583,303.800547,298.245292,304.8397592,8,1,0
1,3,22,2,2,2,2,0,2_1_4_3.bmp,2_1_1_0.bmp,2_1_4_2.bmp,2,1,1,0.635207716,305.9342992,306.4390089,311.0795829,8,1,1
1,3,23,2,2,2,2,0,2_1_4_3.bmp,2_1_1_0.bmp,2_1_2_1.bmp,1,2,1,0.412568257,312.0023538,306.4390089,312.9194295,8,1,0
1,3,24,2,2,2,2,0,2_1_4_3.bmp,2_1_1_0.bmp,2_1_2_1.bmp,1,1,0,0.474887343,314.0601816,306.4390089,315.0394539,8,1,0
1,3,25,2,2,2,2,1,2_1_4_3.bmp,2_1_1_0.bmp,2_1_3_2.bmp,1,2,1,1.095215132,316.1514556,306.4390089,317.7513041,8,1,0
1,3,26,2,2,2,1,0,1_3_3_0.bmp,1_3_4_2.bmp,1_4_4_0.bmp,1,2,1,0.573165954,318.2765974,318.7814441,323.3590815,8,1,1
1,3,27,2,2,2,1,0,1_3_3_0.bmp,1_3_4_2.bmp,1_3_4_2.bmp,2,1,1,0.526170873,324.3365525,318.7814441,325.3670451,8,1,0
1,3,28,2,2,2,1,0,1_3_3_0.bmp,1_3_4_2.bmp,1_3_4_3.bmp,1,2,1,0.628031255,326.4105699,318.7814441,327.5429837,8,1,0
1,3,29,2,2,2,1,0,1_3_3_0.bmp,1_3_4_2.bmp,1_3_5_2.bmp,2,1,1,0.60032714,328.4699625,318.7814441,329.574865,8,1,0
1,3,30,2,2,2,1,0,1_3_3_0.bmp,1_3_4_2.bmp,1_4_4_0.bmp,1,2,1,0.795041046,330.5633857,318.7814441,331.86279,8,1,0
1,4,1,2,2,1,4,0,4_4_4_0.bmp,4_3_5_3.bmp,4_4_5_1.bmp,2,1,1,0.595362657,348.7572394,349.2619674,353.8620022,7,1,0
1,4,2,2,2,1,4,0,4_4_4_0.bmp,4_3_5_3.bmp,4_3_5_1.bmp,1,2,1,0.511704678,354.821891,349.2619674,355.8379947,7,1,0
1,4,3,2,2,1,4,1,4_4_4_0.bmp,4_3_5_3.bmp,4_3_5_1.bmp,1,2,1,0.640582025,356.8767725,349.2619674,358.021816,7,1,0
1,4,4,2,2,1,3,0,3_2_5_2.bmp,3_1_1_0.bmp,3_1_4_2.bmp,1,1,0,0.435606846,359.0533705,359.5579324,363.9976426,7,1,1
1,4,5,2,2,1,3,0,3_2_5_2.bmp,3_1_1_0.bmp,3_2_5_3.bmp,2,1,1,0.359213062,365.1979462,359.5579324,366.0615139,7,1,0
1,4,6,2,2,1,3,0,3_2_5_2.bmp,3_1_1_0.bmp,3_2_5_3.bmp,2,1,1,0.385822305,367.2673778,359.5579324,368.1574504,7,1,0
1,4,7,2,2,1,3,0,3_2_5_2.bmp,3_1_1_0.bmp,3_1_4_2.bmp,1,1,0,0.353593879,369.3315651,359.5579324,370.1893784,7,1,0
1,4,8,2,2,1,3,1,3_2_5_2.bmp,3_1_1_0.bmp,3_5_5_0.bmp,2,1,1,0.84550883,371.4235804,359.5579324,372.773311,7,1,0
1,4,9,2,2,1,1,0,1_1_1_0.bmp,1_1_3_1.bmp,1_1_3_3.bmp,1,1,0,0.75267123,373.5431594,374.0478947,378.8051256,7,1,1
1,4,10,2,2,1,1,0,1_1_1_0.bmp,1_1_3_1.bmp,1_1_1_0.bmp,1,1,0,0.411853465,379.6080174,374.0478947,380.5251436,7,1,0
1,4,11,2,2,1,1,1,1_1_1_0.bmp,1_1_3_1.bmp,1_1_3_2.bmp,2,1,1,0.580662404,381.6718547,374.0478947,382.7570375,7,1,0
1,4,12,2,2,1,3,0,3_3_3_0.bmp,3_2_3_1.bmp,3_3_5_2.bmp,2,2,0,0.603509,383.8203658,384.3250247,388.932803,7,1,1
1,4,13,2,2,1,3,0,3_3_3_0.bmp,3_2_3_1.bmp,3_2_3_3.bmp,1,1,0,0.484609593,389.9679218,384.3250247,390.9567345,7,1,0
1,4,14,2,2,1,3,1,3_3_3_0.bmp,3_2_3_1.bmp,3_2_3_3.bmp,1,1,0,0.484404079,392.0319307,384.3250247,393.0205995,7,1,0
1,4,15,2,2,1,2,0,2_2_2_0.bmp,2_5_5_0.bmp,2_2_5_1.bmp,1,1,0,0.474421932,394.14886,394.6534774,399.1323837,7,1,1
1,4,16,2,2,1,2,0,2_2_2_0.bmp,2_5_5_0.bmp,2_2_3_1.bmp,2,1,1,0.458556199,400.2174229,394.6534774,401.1804042,7,1,0
1,4,17,2,2,1,2,0,2_2_2_0.bmp,2_5_5_0.bmp,2_2_5_1.bmp,1,1,0,0.410489682,402.3053813,394.6534774,403.2203527,7,1,0
1,4,18,2,2,1,2,0,2_2_2_0.bmp,2_5_5_0.bmp,2_4_5_2.bmp,1,1,0,0.422075979,404.3656594,394.6534774,405.2921696,7,1,0
1,4,19,2,2,1,2,0,2_2_2_0.bmp,2_5_5_0.bmp,2_2_3_2.bmp,2,2,0,0.631350725,406.4362525,394.6534774,407.5720972,7,1,0
1,4,20,2,2,1,2,1,2_2_2_0.bmp,2_5_5_0.bmp,2_2_5_1.bmp,1,1,0,0.42976953,408.5017685,394.6534774,409.4360921,7,1,0
1,4,21,2,2,1,3,1,3_1_1_0.bmp,3_2_5_1.bmp,3_1_4_2.bmp,2,1,1,0.686422442,410.6967564,411.2012961,415.8918026,7,1,1
1,4,22,2,2,1,1,0,1_4_4_0.bmp,1_1_5_1.bmp,1_1_1_0.bmp,1,2,1,0.852964418,416.7854086,417.2901409,422.1475608,7,1,1
1,4,23,2,2,1,1,0,1_4_4_0.bmp,1_1_5_1.bmp,1_1_1_0.bmp,1,2,1,0.47720959,422.8538502,417.2901409,423.8355381,7,1,0
1,4,24,2,2,1,1,0,1_4_4_0.bmp,1_1_5_1.bmp,1_1_5_3.bmp,1,2,1,0.606151536,424.9647162,417.2901409,426.075441,7,1,0
1,4,25,2,2,1,1,0,1_4_4_0.bmp,1_1_5_1.bmp,1_1_1_0.bmp,1,2,1,0.661984014,427.0286755,417.2901409,428.195316,7,1,0
1,4,26,2,2,1,1,1,1_4_4_0.bmp,1_1_5_1.bmp,1_1_5_3.bmp,1,2,1,1.144146369,429.0905529,417.2901409,430.7392816,7,1,0
1,4,27,2,2,1,4,0,4_1_3_2.bmp,4_5_5_0.bmp,4_4_5_2.bmp,1,1,0,1.338940197,431.1789023,431.6835897,437.0270768,7,1,1
1,4,28,2,2,1,4,0,4_1_3_2.bmp,4_5_5_0.bmp,4_3_3_0.bmp,2,2,0,0.652844955,437.2858212,431.6835897,438.4430423,7,1,0
1,4,29,2,2,1,4,0,4_1_3_2.bmp,4_5_5_0.bmp,4_1_5_2.bmp,1,1,0,0.479035479,439.355555,431.6835897,440.3389811,7,1,0
1,4,30,2,2,1,4,0,4_1_3_2.bmp,4_5_5_0.bmp,4_1_3_3.bmp,2,1,1,0.658297083,441.4239881,431.6835897,442.5868591,7,1,0
1,5,1,2,1,1,2,0,2_1_2_2.bmp,2_1_4_1.bmp,2_1_4_3.bmp,1,2,1,0.646941539,459.6379146,460.1426098,464.7941349,5,1,0
1,5,2,2,1,1,2,0,2_1_2_2.bmp,2_1_4_1.bmp,2_1_4_3.bmp,1,2,1,0.42203121,465.7074314,460.1426098,466.6341128,5,1,0
1,5,3,2,1,1,2,1,2_1_2_2.bmp,2_1_4_1.bmp,2_2_2_0.bmp,2,1,1,0.487935372,467.7773395,460.1426098,468.7700227,5,1,0
1,5,4,2,1,1,3,0,3_1_1_0.bmp,3_1_3_3.bmp,3_1_3_2.bmp,1,1,0,0.68726613,470.02939,470.5341141,475.2257246,5,1,1
1,5,5,2,1,1,3,0,3_1_1_0.bmp,3_1_3_3.bmp,3_1_3_2.bmp,1,1,0,0.595532116,476.1098613,470.5341141,477.2096212,5,1,0
1,5,6,2,1,1,3,0,3_1_1_0.bmp,3_1_3_3.bmp,3_1_3_1.bmp,1,1,0,0.498977538,478.214576,470.5341141,479.2175975,5,1,0
1,5,7,2,1,1,3,0,3_1_1_0.bmp,3_1_3_3.bmp,3_1_2_1.bmp,2,1,1,0.410349969,480.3189792,470.5341141,481.2335611,5,1,0
1,5,8,2,1,1,3,1,3_1_1_0.bmp,3_1_3_3.bmp,3_1_3_2.bmp,2,1,1,0.7496402,482.3956007,470.5341141,483.6494092,5,1,0
1,5,9,2,1,1,4,0,4_4_4_0.bmp,4_2_4_2.bmp,4_2_4_3.bmp,1,2,1,0.635555648,484.5684839,485.0731023,489.7132219,5,1,1
1,5,10,2,1,1,4,1,4_4_4_0.bmp,4_2_4_2.bmp,4_4_4_0.bmp,1,1,0,0.573401814,490.6351344,485.0731023,491.7131086,5,1,0
1,5,11,2,1,1,1,0,1_3_4_1.bmp,1_2_4_2.bmp,1_3_4_3.bmp,2,1,1,0.602262095,492.7292258,493.2340419,497.8409476,5,1,1
1,5,12,2,1,1,1,0,1_3_4_1.bmp,1_2_4_2.bmp,1_4_4_0.bmp,1,1,0,0.676523222,498.8038811,493.2340419,499.9847923,5,1,0
1,5,13,2,1,1,1,1,1_3_4_1.bmp,1_2_4_2.bmp,1_2_4_3.bmp,1,2,1,0.638052461,500.8981345,493.2340419,502.0407299,5,1,0
1,5,14,2,1,1,2,0,2_3_3_0.bmp,2_1_4_2.bmp,2_1_4_3.bmp,1,2,1,0.547857698,502.9755484,503.4802094,508.0325691,5,1,1
1,5,15,2,1,1,2,0,2_3_3_0.bmp,2_1_4_2.bmp,2_1_4_3.bmp,1,2,1,0.621785315,509.0982278,503.4802094,510.2245423,5,1,0
1,5,16,2,1,1,2,0,2_3_3_0.bmp,2_1_4_2.bmp,2_3_5_2.bmp,2,1,1,0.486967895,511.1688801,503.4802094,512.1604276,5,1,0
1,5,17,2,1,1,2,1,2_3_3_0.bmp,2_1_4_2.bmp,2_3_5_1.bmp,2,1,1,0.360873098,513.2390818,503.4802094,514.1043226,5,1,0
1,5,18,2,1,1,3,0,3_4_4_0.bmp,3_1_2_1.bmp,3_1_1_0.bmp,1,2,1,0.480936482,515.4023403,515.9069815,520.3921121,5,1,1
1,5,19,2,1,1,3,0,3_4_4_0.bmp,3_1_2_1.bmp,3_1_1_0.bmp,1,2,1,0.389517349,521.5224542,515.9069815,522.41605,5,1,0
1,5,20,2,1,1,3,0,3_4_4_0.bmp,3_1_2_1.bmp,3_1_2_3.bmp,1,1,0,0.52359594,523.6278666,515.9069815,524.6559962,5,1,0
1,5,21,2,1,1,3,0,3_4_4_0.bmp,3_1_2_1.bmp,3_4_5_2.bmp,2,2,0,0.496959957,525.7339169,515.9069815,526.7359041,5,1,0
1,5,22,2,1,1,3,0,3_4_4_0.bmp,3_1_2_1.bmp,3_1_1_0.bmp,1,2,1,0.48428059,527.8114566,515.9069815,528.7998198,5,1,0
1,5,23,2,1,1,3,0,3_4_4_0.bmp,3_1_2_1.bmp,3_4_5_2.bmp,2,1,1,0.921620183,529.8860134,515.9069815,531.3118562,5,1,0
1,5,24,2,1,1,3,1,3_4_4_0.bmp,3_1_2_1.bmp,3_4_5_2.bmp,2,0,0,NaN,531.9662765,515.9069815,NaN,5,1,0
1,5,25,2,1,1,4,1,4_1_3_2.bmp,4_1_1_0.bmp,4_1_3_3.bmp,2,1,1,0.896224794,534.0979223,534.6027137,539.5034288,5,1,1
1,5,26,2,1,1,1,0,1_1_1_0.bmp,1_1_4_1.bmp,1_1_4_3.bmp,1,1,0,0.746263343,540.2079951,540.7125254,545.4632617,5,1,1
1,5,27,2,1,1,1,0,1_1_1_0.bmp,1_1_4_1.bmp,1_1_4_2.bmp,2,1,1,0.530312399,546.3165614,540.7125254,547.3513089,5,1,0
1,5,28,2,1,1,1,0,1_1_1_0.bmp,1_1_4_1.bmp,1_1_5_2.bmp,2,1,1,0.722905366,548.3876257,540.7125254,549.6151172,5,1,0
1,5,29,2,1,1,1,0,1_1_1_0.bmp,1_1_4_1.bmp,1_1_4_3.bmp,1,1,0,0.97227335,550.45014,540.7125254,551.92699,5,1,0
1,5,30,2,1,1,1,0,1_1_1_0.bmp,1_1_4_1.bmp,1_1_4_2.bmp,2,1,1,0.380757169,552.5138662,540.7125254,553.3990257,5,1,0
1,6,1,1,1,1,4,0,4_2_4_2.bmp,4_2_5_2.bmp,4_5_5_0.bmp,1,2,1,0.608232815,570.7207009,571.2253854,575.8382579,1,1,0
1,6,2,1,1,1,4,0,4_2_4_2.bmp,4_2_5_2.bmp,4_2_5_3.bmp,1,2,1,0.517517957,576.8081555,571.2253854,577.8300821,1,1,0
1,6,3,1,1,1,4,0,4_2_4_2.bmp,4_2_5_2.bmp,4_5_5_0.bmp,1,2,1,0.511488347,578.8701287,571.2253854,579.8861342,1,1,0
1,6,4,1,1,1,4,1,4_2_4_2.bmp,4_2_5_2.bmp,4_4_4_0.bmp,2,1,1,0.691328335,581.0416598,571.2253854,582.2379394,1,1,0
1,6,5,1,1,1,1,0,1_2_4_3.bmp,1_1_1_0.bmp,1_1_5_2.bmp,1,2,1,0.613634465,583.1309163,583.6354469,588.2537237,1,1,1
1,6,6,1,1,1,1,0,1_2_4_3.bmp,1_1_1_0.bmp,1_2_4_1.bmp,2,1,1,0.71255756,589.2047591,583.6354469,590.4216728,1,1,0
1,6,7,1,1,1,1,0,1_2_4_3.bmp,1_1_1_0.bmp,1_2_4_2.bmp,2,1,1,0.682765256,591.2738599,583.6354469,592.4615581,1,1,0
1,6,8,1,1,1,1,1,1_2_4_3.bmp,1_1_1_0.bmp,1_2_4_2.bmp,2,1,1,0.795224025,593.3857995,583.6354469,594.6856022,1,1,0
1,6,9,1,1,1,2,0,2_2_5_2.bmp,2_1_5_1.bmp,2_5_5_0.bmp,2,1,1,0.588428666,595.4596024,595.9642841,600.5572792,1,1,1
1,6,10,1,1,1,2,0,2_2_5_2.bmp,2_1_5_1.bmp,2_1_5_3.bmp,1,1,0,0.375891236,601.5648724,595.9642841,602.4452227,1,1,0
1,6,11,1,1,1,2,0,2_2_5_2.bmp,2_1_5_1.bmp,2_1_1_0.bmp,1,1,0,0.314421547,603.6341835,595.9642841,604.4531747,1,1,0
1,6,12,1,1,1,2,1,2_2_5_2.bmp,2_1_5_1.bmp,2_1_5_3.bmp,1,1,0,0.566571782,605.750065,595.9642841,606.8211458,1,1,0
1,6,13,1,1,1,3,0,3_1_1_0.bmp,3_1_4_3.bmp,3_1_4_2.bmp,1,1,0,0.560026585,607.9039484,608.4086788,612.97288,1,1,1
1,6,14,1,1,1,3,0,3_1_1_0.bmp,3_1_4_3.bmp,3_1_4_2.bmp,1,1,0,0.460414537,613.984085,608.4086788,614.9488069,1,1,0
1,6,15,1,1,1,3,0,3_1_1_0.bmp,3_1_4_3.bmp,3_1_4_1.bmp,1,1,0,0.619110329,616.1056771,608.4086788,617.2288274,1,1,0
1,6,16,1,1,1,3,1,3_1_1_0.bmp,3_1_4_3.bmp,3_1_3_2.bmp,2,2,0,0.431542238,618.2530288,608.4086788,619.1886314,1,1,0
1,6,17,1,1,1,4,0,4_2_4_3.bmp,4_1_5_3.bmp,4_2_4_1.bmp,2,1,1,0.473986868,620.3973191,620.9019591,625.3805144,1,1,1
1,6,18,1,1,1,4,0,4_2_4_3.bmp,4_1_5_3.bmp,4_1_5_2.bmp,1,1,0,0.585362483,626.4744721,620.9019591,627.5643325,1,1,0
1,6,19,1,1,1,4,0,4_2_4_3.bmp,4_1_5_3.bmp,4_1_5_1.bmp,1,1,0,0.565721483,628.5422962,620.9019591,629.6123491,1,1,0
1,6,20,1,1,1,4,1,4_2_4_3.bmp,4_1_5_3.bmp,4_1_5_1.bmp,1,2,1,1.352458445,630.6593334,620.9019591,632.5161761,1,1,0
1,6,21,1,1,1,1,0,1_2_5_1.bmp,1_2_3_3.bmp,1_2_2_0.bmp,2,1,1,0.840898589,632.7337667,633.2384848,638.0840173,1,1,1
1,6,22,1,1,1,1,0,1_2_5_1.bmp,1_2_3_3.bmp,1_2_3_1.bmp,1,1,0,0.536667105,638.8107124,633.2384848,639.8519711,1,1,0
1,6,23,1,1,1,1,0,1_2_5_1.bmp,1_2_3_3.bmp,1_2_2_0.bmp,2,1,1,0.624792007,640.93025,633.2384848,642.0598331,1,1,0
1,6,24,1,1,1,1,1,1_2_5_1.bmp,1_2_3_3.bmp,1_2_3_2.bmp,1,2,1,0.637368016,643.0298632,633.2384848,644.1718433,1,1,0
1,6,25,1,1,1,2,0,2_1_5_1.bmp,2_5_5_0.bmp,2_1_5_3.bmp,2,0,0,NaN,645.1066109,645.61122,NaN,1,1,1
1,6,26,1,1,1,2,0,2_1_5_1.bmp,2_5_5_0.bmp,2_2_5_2.bmp,1,1,0,0.750367311,651.1806356,645.61122,652.4355615,1,1,0
1,6,27,1,1,1,2,0,2_1_5_1.bmp,2_5_5_0.bmp,2_1_1_0.bmp,2,2,0,0.525184166,653.2776069,645.61122,654.3074206,1,1,0
1,6,28,1,1,1,2,1,2_1_5_1.bmp,2_5_5_0.bmp,2_2_5_2.bmp,1,1,0,0.475877656,655.3430547,645.61122,656.3233936,1,1,0
1,6,29,1,1,1,3,0,3_3_5_3.bmp,3_4_4_0.bmp,3_3_5_2.bmp,2,1,1,0.479656828,657.5106465,658.0153583,662.499241,1,1,1
1,6,30,1,1,1,3,0,3_3_5_3.bmp,3_4_4_0.bmp,3_3_5_2.bmp,2,2,0,0.707730988,663.5910616,658.0153583,664.803045,1,1,0
1,7,1,1,1,2,4,0,4_4_5_2.bmp,4_2_5_1.bmp,4_5_5_0.bmp,2,1,1,0.648060748,681.7730072,682.2777301,686.9303741,2,1,0
1,7,2,1,1,2,4,0,4_4_5_2.bmp,4_2_5_1.bmp,4_5_5_0.bmp,2,1,1,0.576919287,687.840806,682.2777301,688.9222472,2,1,0
1,7,3,1,1,2,4,0,4_4_5_2.bmp,4_2_5_1.bmp,4_5_5_0.bmp,2,1,1,0.489543729,689.9279698,682.2777301,690.922155,2,1,0
1,7,4,1,1,2,4,1,4_4_5_2.bmp,4_2_5_1.bmp,4_2_2_0.bmp,1,2,1,1.065936912,691.9994141,682.2777301,693.5700769,2,1,0
1,7,5,1,1,2,1,0,1_1_4_2.bmp,1_2_4_2.bmp,1_2_4_3.bmp,1,1,0,0.548006425,694.1125585,694.6171994,699.1698867,2,1,1
1,7,6,1,1,2,1,0,1_1_4_2.bmp,1_2_4_2.bmp,1_4_4_0.bmp,2,1,1,0.662370705,700.1869849,694.6171994,701.3538213,2,1,0
1,7,7,1,1,2,1,0,1_1_4_2.bmp,1_2_4_2.bmp,1_2_4_3.bmp,1,1,0,0.449552947,702.279678,694.6171994,703.2336705,2,1,0
1,7,8,1,1,2,1,1,1_1_4_2.bmp,1_2_4_2.bmp,1_4_4_0.bmp,2,1,1,0.486543046,704.3465707,694.6171994,705.3375995,2,1,0
1,7,9,1,1,2,2,0,2_1_4_1.bmp,2_2_4_3.bmp,2_2_4_2.bmp,1,1,0,0.514053666,706.4981447,707.0027489,711.5213909,2,1,1
1,7,10,1,1,2,2,0,2_1_4_1.bmp,2_2_4_3.bmp,2_1_4_3.bmp,2,2,0,0.427073813,712.5739225,707.0027489,713.5053914,2,1,0
1,7,11,1,1,2,2,0,2_1_4_1.bmp,2_2_4_3.bmp,2_1_4_3.bmp,2,2,0,0.602868121,714.6777707,707.0027489,715.7852359,2,1,0
1,7,12,1,1,2,2,1,2_1_4_1.bmp,2_2_4_3.bmp,2_1_1_0.bmp,2,1,1,0.756931437,716.747634,707.0027489,718.0091306,2,1,0
1,7,13,1,1,2,3,0,3_2_3_1.bmp,3_3_5_3.bmp,3_2_2_0.bmp,2,1,1,0.440778946,718.9633245,719.4680486,723.9130604,2,1,1
1,7,14,1,1,2,3,0,3_2_3_1.bmp,3_3_5_3.bmp,3_3_5_2.bmp,1,1,0,0.439277553,725.1215218,719.4680486,726.064964,2,1,0
1,7,15,1,1,2,3,0,3_2_3_1.bmp,3_3_5_3.bmp,3_3_5_2.bmp,1,1,0,0.928563488,727.2001684,719.4680486,728.6329029,2,1,0
1,7,16,1,1,2,3,1,3_2_3_1.bmp,3_3_5_3.bmp,3_2_2_0.bmp,2,1,1,0.500762264,729.2758138,719.4680486,730.2807149,2,1,0
1,7,17,1,1,2,4,0,4_1_1_0.bmp,4_4_5_3.bmp,4_1_5_2.bmp,2,2,0,0.634858283,731.4007656,731.90532,736.5446203,2,1,1
1,7,18,1,1,2,4,0,4_1_1_0.bmp,4_4_5_3.bmp,4_4_5_2.bmp,1,2,1,0.612320558,737.5155037,731.90532,738.6324654,2,1,0
1,7,19,1,1,2,4,0,4_1_1_0.bmp,4_4_5_3.bmp,4_1_5_2.bmp,2,0,0,NaN,739.5792818,731.90532,NaN,2,1,0
1,7,20,1,1,2,4,1,4_1_1_0.bmp,4_4_5_3.bmp,4_1_3_2.bmp,2,2,0,0.464632079,741.6472916,731.90532,742.6163557,2,1,0
1,7,21,1,1,2,1,0,1_1_2_3.bmp,1_2_2_0.bmp,1_2_5_2.bmp,1,1,0,0.910071744,743.7327012,744.2374022,749.1521097,2,1,1
1,7,22,1,1,2,1,0,1_1_2_3.bmp,1_2_2_0.bmp,1_1_2_2.bmp,2,2,0,0.572547008,749.8751614,744.2374022,750.9521102,2,1,0
1,7,23,1,1,2,1,0,1_1_2_3.bmp,1_2_2_0.bmp,1_1_2_1.bmp,2,2,0,0.872015016,751.943593,744.2374022,753.3200245,2,1,0
1,7,24,1,1,2,1,1,1_1_2_3.bmp,1_2_2_0.bmp,1_1_2_2.bmp,2,2,0,0.823835526,754.0077002,744.2374022,755.3359062,2,1,0
1,7,25,1,1,2,2,0,2_3_4_3.bmp,2_1_5_3.bmp,2_3_4_1.bmp,2,2,0,0.731257523,756.0871103,756.5918049,761.3277129,2,1,1
1,7,26,1,1,2,2,0,2_3_4_3.bmp,2_1_5_3.bmp,2_1_5_2.bmp,1,2,1,0.554869207,762.1963715,756.5918049,763.2556431,2,1,0
1,7,27,1,1,2,2,0,2_3_4_3.bmp,2_1_5_3.bmp,2_1_5_1.bmp,1,2,1,0.916998824,764.2659527,756.5918049,765.6875224,2,1,0
1,7,28,1,1,2,2,1,2_3_4_3.bmp,2_1_5_3.bmp,2_1_5_2.bmp,1,2,1,1.185155106,766.3337765,756.5918049,768.0233832,2,1,0
1,7,29,1,1,2,3,0,3_1_1_0.bmp,3_1_2_3.bmp,3_1_5_2.bmp,2,1,1,1.212901886,768.5094017,769.0140963,774.2312765,2,1,1
1,7,30,1,1,2,3,0,3_1_1_0.bmp,3_1_2_3.bmp,3_1_3_1.bmp,2,1,1,0.48878507,774.6542223,769.0140963,775.6471888,2,1,0
1,8,1,1,2,1,1,0,1_2_2_0.bmp,1_1_1_0.bmp,1_1_4_1.bmp,1,2,1,0.560555993,792.8566874,793.3612018,797.9263831,3,1,0
1,8,2,1,2,1,1,0,1_2_2_0.bmp,1_1_1_0.bmp,1_2_3_2.bmp,2,2,0,0.571121932,798.9307824,793.3612018,800.0063,3,1,0
1,8,3,1,2,1,1,0,1_2_2_0.bmp,1_1_1_0.bmp,1_2_3_2.bmp,2,2,0,0.452905167,800.9926919,793.3612018,801.9501971,3,1,0
1,8,4,1,2,1,1,1,1_2_2_0.bmp,1_1_1_0.bmp,1_1_2_2.bmp,1,2,1,0.454311315,803.0632196,793.3612018,804.0221799,3,1,0
1,8,5,1,2,1,3,0,3_4_5_3.bmp,3_1_1_0.bmp,3_4_5_2.bmp,2,0,0,NaN,805.2268822,805.7314234,NaN,3,1,1
1,8,6,1,2,1,3,0,3_4_5_3.bmp,3_1_1_0.bmp,3_1_2_2.bmp,1,2,1,1.278485158,811.3673194,805.7314234,813.1498569,3,1,0
1,8,7,1,2,1,3,0,3_4_5_3.bmp,3_1_1_0.bmp,3_1_2_2.bmp,1,2,1,0.753559086,813.4441345,805.7314234,814.7017786,3,1,0
1,8,8,1,2,1,3,1,3_4_5_3.bmp,3_1_1_0.bmp,3_4_5_2.bmp,2,0,0,NaN,815.5174966,805.7314234,NaN,3,1,0
1,8,9,1,2,1,4,0,4_2_3_2.bmp,4_3_3_0.bmp,4_2_3_3.bmp,2,1,1,0.732891719,817.5955853,818.1001787,822.8374794,3,1,1
1,8,10,1,2,1,4,0,4_2_3_2.bmp,4_3_3_0.bmp,4_2_3_3.bmp,2,1,1,0.696389565,823.6686016,818.1001787,824.8694404,3,1,0
1,8,11,1,2,1,4,0,4_2_3_2.bmp,4_3_3_0.bmp,4_3_3_0.bmp,2,1,1,0.465415676,825.7315532,818.1001787,826.7014823,3,1,0
1,8,12,1,2,1,4,1,4_2_3_2.bmp,4_3_3_0.bmp,4_3_5_1.bmp,1,2,1,0.460955063,827.7997402,818.1001787,828.7652848,3,1,0
1,8,13,1,2,1,1,0,1_2_4_3.bmp,1_3_5_3.bmp,1_2_4_2.bmp,2,1,1,1.064886207,829.8790232,830.3836764,835.4530374,3,1,1
1,8,14,1,2,1,1,0,1_2_4_3.bmp,1_3_5_3.bmp,1_3_5_2.bmp,1,1,0,1.065801105,835.9545919,830.3836764,837.5250228,3,1,0
1,8,15,1,2,1,1,0,1_2_4_3.bmp,1_3_5_3.bmp,1_3_5_2.bmp,1,1,0,0.657919406,838.0185452,830.3836764,839.1809529,3,1,0
1,8,16,1,2,1,1,1,1_2_4_3.bmp,1_3_5_3.bmp,1_3_5_1.bmp,1,2,1,0.626400965,840.0897465,830.3836764,841.2208181,3,1,0
1,8,17,1,2,1,4,0,4_3_5_2.bmp,4_1_2_1.bmp,4_1_2_3.bmp,1,1,0,1.489723704,842.1657776,842.6703668,848.1645611,3,1,1
1,8,18,1,2,1,4,0,4_3_5_2.bmp,4_1_2_1.bmp,4_1_2_3.bmp,1,1,0,0.610640693,848.2334374,842.6703668,849.3486357,3,1,0
1,8,19,1,2,1,4,0,4_3_5_2.bmp,4_1_2_1.bmp,4_1_2_3.bmp,1,1,0,0.469273268,850.2947703,842.6703668,851.2685577,3,1,0
1,8,20,1,2,1,4,1,4_3_5_2.bmp,4_1_2_1.bmp,4_1_2_3.bmp,1,1,0,0.438779091,852.3573136,842.6703668,853.3004788,3,1,0
1,8,21,1,2,1,2,0,2_2_3_2.bmp,2_4_4_0.bmp,2_2_3_3.bmp,2,0,0,NaN,854.4340063,854.9395128,NaN,3,1,1
1,8,22,1,2,1,2,0,2_2_3_2.bmp,2_4_4_0.bmp,2_4_5_1.bmp,1,0,0,NaN,860.5109415,854.9395128,NaN,3,1,0
1,8,23,1,2,1,2,0,2_2_3_2.bmp,2_4_4_0.bmp,2_4_5_1.bmp,1,1,0,0.589872672,862.5737996,854.9395128,863.6681557,3,1,0
1,8,24,1,2,1,2,1,2_2_3_2.bmp,2_4_4_0.bmp,2_4_5_1.bmp,1,1,0,0.353996194,864.6413689,854.9395128,865.4999829,3,1,0
1,8,25,1,2,1,1,0,1_3_5_2.bmp,1_3_4_3.bmp,1_3_4_1.bmp,1,2,1,0.871923075,866.726686,867.2312819,872.1077878,3,1,1
1,8,26,1,2,1,1,0,1_3_5_2.bmp,1_3_4_3.bmp,1_5_5_0.bmp,2,1,1,0.636219962,872.798978,867.2312819,873.9397024,3,1,0
1,8,27,1,2,1,1,0,1_3_5_2.bmp,1_3_4_3.bmp,1_3_4_1.bmp,1,1,0,0.565737407,874.8614485,867.2312819,875.9317018,3,1,0
1,8,28,1,2,1,1,1,1_3_5_2.bmp,1_3_4_3.bmp,1_3_4_2.bmp,1,1,0,0.498645531,876.9365208,867.2312819,877.9395576,3,1,0
1,8,29,1,2,1,2,0,2_4_4_0.bmp,2_2_4_1.bmp,2_2_4_3.bmp,1,1,0,0.590380748,879.015942,879.5204919,884.1154201,3,1,1
1,8,30,1,2,1,2,0,2_4_4_0.bmp,2_2_4_1.bmp,2_4_5_1.bmp,2,1,1,0.62584121,885.0890542,879.5204919,886.2192566,3,1,0
1,1,1,1,2,1,2,0,2_1_2_1.bmp,2_3_4_1.bmp,2_1_2_3.bmp,2,1,1,0.864630937,16.24580454,16.75298401,21.62484128,3,2,0
1,1,2,1,2,1,2,0,2_1_2_1.bmp,2_3_4_1.bmp,2_3_4_3.bmp,1,2,1,0.443685285,22.33090983,16.75298401,23.28082874,3,2,0
1,1,3,1,2,1,2,0,2_1_2_1.bmp,2_3_4_1.bmp,2_3_4_3.bmp,1,2,1,0.568036219,24.39190269,16.75298401,25.46452602,3,2,0
1,1,4,1,2,1,2,1,2_1_2_1.bmp,2_3_4_1.bmp,2_1_2_3.bmp,2,1,1,0.564050631,26.45192327,16.75298401,27.52051203,3,2,0
1,1,5,1,2,1,3,0,3_2_2_0.bmp,3_1_3_1.bmp,3_1_3_3.bmp,1,1,0,0.571141461,28.60517084,29.11232026,33.68825043,3,2,1
1,1,6,1,2,1,3,0,3_2_2_0.bmp,3_1_3_1.bmp,3_1_3_3.bmp,1,1,0,0.418851153,34.68506046,29.11232026,35.60820667,3,2,0
1,1,7,1,2,1,3,0,3_2_2_0.bmp,3_1_3_1.bmp,3_2_5_1.bmp,2,1,1,0.35023595,36.77762705,29.11232026,37.63218029,3,2,0
1,1,8,1,2,1,3,1,3_2_2_0.bmp,3_1_3_1.bmp,3_2_3_2.bmp,2,1,1,0.346206796,38.86949957,29.11232026,39.72007234,3,2,0
1,1,9,1,2,1,1,0,1_1_1_0.bmp,1_5_5_0.bmp,1_4_5_1.bmp,1,1,0,0.796987719,40.98929375,41.4941062,46.29580031,3,2,1
1,1,10,1,2,1,1,0,1_1_1_0.bmp,1_5_5_0.bmp,1_1_5_2.bmp,2,1,1,1.017359615,47.06172087,41.4941062,48.58372739,3,2,0
1,1,11,1,2,1,1,0,1_1_1_0.bmp,1_5_5_0.bmp,1_1_5_2.bmp,1,1,0,0.537234372,49.11777689,41.4941062,50.15965966,3,2,0
1,1,12,1,2,1,1,1,1_1_1_0.bmp,1_5_5_0.bmp,1_1_5_2.bmp,1,1,0,0.369774193,51.1732386,41.4941062,52.04757166,3,2,0
1,1,13,1,2,1,2,0,2_3_3_0.bmp,2_4_4_0.bmp,2_3_5_2.bmp,2,1,1,0.42899074,53.29307364,53.79767517,58.23135036,3,2,1
1,1,14,1,2,1,2,0,2_3_3_0.bmp,2_4_4_0.bmp,2_4_5_2.bmp,1,2,1,0.456078314,59.35853613,53.79767517,60.31930941,3,2,0
1,1,15,1,2,1,2,0,2_3_3_0.bmp,2_4_4_0.bmp,2_4_5_2.bmp,1,2,1,0.455764034,61.41481389,53.79767517,62.37521761,3,2,0
1,1,16,1,2,1,2,1,2_3_3_0.bmp,2_4_4_0.bmp,2_4_5_2.bmp,1,2,1,0.391527419,63.4709988,53.79767517,64.36713586,3,2,0
1,1,17,1,2,1,3,0,3_3_4_2.bmp,3_4_4_0.bmp,3_4_4_0.bmp,2,2,0,0.731803156,65.60589164,66.11073684,70.84693481,3,2,1
1,1,18,1,2,1,3,0,3_3_4_2.bmp,3_4_4_0.bmp,3_4_5_2.bmp,1,1,0,0.647686677,71.7028251,66.11073684,72.85487534,3,2,0
1,1,19,1,2,1,3,0,3_3_4_2.bmp,3_4_4_0.bmp,3_4_4_0.bmp,2,1,1,1.137652551,73.77286237,66.11073684,75.41479977,3,2,0
1,1,20,1,2,1,3,1,3_3_4_2.bmp,3_4_4_0.bmp,3_4_5_1.bmp,1,1,0,0.943117718,75.86326325,66.11073684,77.31068474,3,2,0
1,1,21,1,2,1,1,0,1_1_4_2.bmp,1_1_1_0.bmp,1_1_2_2.bmp,1,2,1,0.754293708,77.99877863,78.50354992,83.26251126,3,2,1
1,1,22,1,2,1,1,0,1_1_4_2.bmp,1_1_1_0.bmp,1_1_4_2.bmp,1,2,1,0.504397517,84.06149763,78.50354992,85.0704435,3,2,0
1,1,23,1,2,1,1,0,1_1_4_2.bmp,1_1_1_0.bmp,1_1_4_1.bmp,1,2,1,0.880844001,86.12486622,78.50354992,87.51038266,3,2,0
1,1,24,1,2,1,1,1,1_1_4_2.bmp,1_1_1_0.bmp,1_4_4_0.bmp,2,1,1,0.578792347,88.18689777,78.50354992,89.27031748,3,2,0
1,1,25,1,2,1,3,0,3_1_5_2.bmp,3_5_5_0.bmp,3_1_5_1.bmp,1,2,1,0.887142221,90.40965861,90.91440707,95.80606008,3,2,1
1,1,26,1,2,1,3,0,3_1_5_2.bmp,3_5_5_0.bmp,3_1_5_3.bmp,2,2,0,0.927833673,96.47792438,90.91440707,97.91004651,3,2,0
1,1,27,1,2,1,3,0,3_1_5_2.bmp,3_5_5_0.bmp,3_1_5_3.bmp,2,1,1,0.660034637,98.54562949,90.91440707,99.70994267,3,2,0
1,1,28,1,2,1,3,1,3_1_5_2.bmp,3_5_5_0.bmp,3_1_5_2.bmp,1,1,0,0.433592569,100.6119237,90.91440707,101.5498696,3,2,0
1,1,29,1,2,1,2,0,2_2_3_1.bmp,2_1_5_3.bmp,2_2_3_3.bmp,2,2,0,0.496588589,102.7357614,103.2404954,107.7417577,3,2,1
1,1,30,1,2,1,2,0,2_2_3_1.bmp,2_1_5_3.bmp,2_2_3_3.bmp,2,2,0,0.40627845,108.7986354,103.2404954,109.7095857,3,2,0
1,2,1,1,2,2,1,0,1_1_3_1.bmp,1_3_5_3.bmp,1_1_1_0.bmp,2,1,1,0.559322609,126.9836268,127.4885204,132.0527951,4,2,0
1,2,2,1,2,2,1,0,1_1_3_1.bmp,1_3_5_3.bmp,1_1_3_3.bmp,2,1,1,0.954809176,133.0492873,127.4885204,134.508692,4,2,0
1,2,3,1,2,2,1,0,1_1_3_1.bmp,1_3_5_3.bmp,1_1_1_0.bmp,2,1,1,0.56237377,135.1056678,127.4885204,136.1726341,4,2,0
1,2,4,1,2,2,1,1,1_1_3_1.bmp,1_3_5_3.bmp,1_3_5_1.bmp,1,2,1,0.651853741,137.1919641,127.4885204,138.3485483,4,2,0
1,2,5,1,2,2,4,0,4_3_5_3.bmp,4_1_3_3.bmp,4_1_3_1.bmp,1,1,0,0.666876988,139.267994,139.772671,144.4443478,4,2,1
1,2,6,1,2,2,4,0,4_3_5_3.bmp,4_1_3_3.bmp,4_1_3_2.bmp,1,2,1,0.463609317,145.3320369,139.772671,146.3002627,4,2,0
1,2,7,1,2,2,4,0,4_3_5_3.bmp,4_1_3_3.bmp,4_1_3_1.bmp,1,1,0,0.736099418,147.3874232,139.772671,148.6281896,4,2,0
1,2,8,1,2,2,4,1,4_3_5_3.bmp,4_1_3_3.bmp,4_3_5_1.bmp,2,2,0,0.588900687,149.4785791,139.772671,150.5721074,4,2,0
1,2,9,1,2,2,3,0,3_5_5_0.bmp,3_3_5_2.bmp,3_3_5_3.bmp,1,1,0,0.464982715,151.6214731,152.1266648,156.5959924,4,2,1
1,2,10,1,2,2,3,0,3_5_5_0.bmp,3_3_5_2.bmp,3_1_5_1.bmp,2,2,0,0.432389532,157.7229105,152.1266648,158.6599307,4,2,0
1,2,11,1,2,2,3,0,3_5_5_0.bmp,3_3_5_2.bmp,3_4_5_2.bmp,2,1,1,0.582353687,159.8129998,152.1266648,160.8997411,4,2,0
1,2,12,1,2,2,3,1,3_5_5_0.bmp,3_3_5_2.bmp,3_1_5_1.bmp,2,2,0,0.561000672,161.9143223,152.1266648,162.9797434,4,2,0
1,2,13,1,2,2,4,0,4_2_3_2.bmp,4_1_1_0.bmp,4_2_3_3.bmp,2,1,1,0.535369724,163.9827347,164.4875334,169.027568,4,2,1
1,2,14,1,2,2,4,0,4_2_3_2.bmp,4_1_1_0.bmp,4_3_3_0.bmp,2,1,1,0.562467513,170.0483568,164.4875334,171.1154573,4,2,0
1,2,15,1,2,2,4,0,4_2_3_2.bmp,4_1_1_0.bmp,4_1_5_1.bmp,1,2,1,0.605341799,172.109367,164.4875334,173.2193179,4,2,0
1,2,16,1,2,2,4,1,4_2_3_2.bmp,4_1_1_0.bmp,4_2_3_3.bmp,2,1,1,0.598655987,174.1962372,164.4875334,175.2993782,4,2,0
1,2,17,1,2,2,3,0,3_1_5_2.bmp,3_3_3_0.bmp,3_3_5_2.bmp,1,1,0,0.464430772,176.3175058,176.8222485,181.2910371,4,2,1
1,2,18,1,2,2,3,0,3_1_5_2.bmp,3_3_3_0.bmp,3_3_5_1.bmp,1,2,1,0.495234722,182.4346258,176.8222485,183.4350104,4,2,0
1,2,19,1,2,2,3,0,3_1_5_2.bmp,3_3_3_0.bmp,3_3_5_2.bmp,1,1,0,0.703786564,184.4988811,176.8222485,185.7068627,4,2,0
1,2,20,1,2,2,3,1,3_1_5_2.bmp,3_3_3_0.bmp,3_3_5_1.bmp,1,2,1,0.579778454,186.5989976,176.8222485,187.6828641,4,2,0
1,2,21,1,2,2,2,0,2_1_2_1.bmp,2_2_4_1.bmp,2_1_2_3.bmp,2,2,0,0.435953575,188.7612463,189.2660365,193.7066593,4,2,1
1,2,22,1,2,2,2,0,2_1_2_1.bmp,2_2_4_1.bmp,2_2_2_0.bmp,1,2,1,0.425378022,194.8241904,189.2660365,195.7545972,4,2,0
1,2,23,1,2,2,2,0,2_1_2_1.bmp,2_2_4_1.bmp,2_1_1_0.bmp,2,1,1,0.530433785,196.8874802,189.2660365,197.9225513,4,2,0
1,2,24,1,2,2,2,1,2_1_2_1.bmp,2_2_4_1.bmp,2_1_2_3.bmp,2,1,1,0.742086363,198.9875766,189.2660365,200.2343601,4,2,0
1,2,25,1,2,2,4,0,4_1_5_2.bmp,4_3_3_0.bmp,4_1_5_3.bmp,2,1,1,0.741772684,201.06292,201.5676862,206.3141442,4,2,1
1,2,26,1,2,2,4,0,4_1_5_2.bmp,4_3_3_0.bmp,4_3_5_2.bmp,1,1,0,0.63974735,207.1293007,201.5676862,208.274176,4,2,0
1,2,27,1,2,2,4,0,4_1_5_2.bmp,4_3_3_0.bmp,4_5_5_0.bmp,2,1,1,0.530220759,209.2312425,201.5676862,210.2660263,4,2,0
1,2,28,1,2,2,4,1,4_1_5_2.bmp,4_3_3_0.bmp,4_1_5_3.bmp,2,1,1,0.785453702,211.2879908,201.5676862,212.577933,4,2,0
1,2,29,1,2,2,3,0,3_5_5_0.bmp,3_2_5_2.bmp,3_4_5_2.bmp,2,1,1,0.523621479,213.4809371,213.9858292,218.513764,4,2,1
1,2,30,1,2,2,3,0,3_5_5_0.bmp,3_2_5_2.bmp,3_1_5_2.bmp,2,1,1,0.526894979,219.5784294,213.9858292,220.6096988,4,2,0
1,3,1,2,2,1,2,0,2_2_5_1.bmp,2_2_3_2.bmp,2_2_2_0.bmp,2,1,1,0.523181908,237.7762143,238.2809931,242.8089009,7,2,0
1,3,2,2,2,1,2,1,2_2_5_1.bmp,2_2_3_2.bmp,2_2_3_3.bmp,1,2,1,0.426532686,243.8457732,238.2809931,244.7768122,7,2,0
1,3,3,2,2,1,4,0,4_5_5_0.bmp,4_4_5_2.bmp,4_1_5_2.bmp,2,2,0,0.633657348,245.9536572,246.4584573,251.0966486,7,2,1
1,3,4,2,2,1,4,0,4_5_5_0.bmp,4_4_5_2.bmp,4_3_5_2.bmp,2,1,1,0.753880878,252.0219705,246.4584573,253.2805232,7,2,0
1,3,5,2,2,1,4,0,4_5_5_0.bmp,4_4_5_2.bmp,4_2_5_1.bmp,2,2,0,0.558770666,254.0813123,246.4584573,255.1445051,7,2,0
1,3,6,2,2,1,4,0,4_5_5_0.bmp,4_4_5_2.bmp,4_2_5_1.bmp,2,2,0,0.510135381,256.137709,246.4584573,257.1523991,7,2,0
1,3,7,2,2,1,4,0,4_5_5_0.bmp,4_4_5_2.bmp,4_1_5_2.bmp,2,1,1,0.966512952,258.225279,246.4584573,259.6963325,7,2,0
1,3,8,2,2,1,4,1,4_5_5_0.bmp,4_4_5_2.bmp,4_5_5_0.bmp,1,1,0,0.806620132,260.2810192,246.4584573,261.5922571,7,2,0
1,3,9,2,2,1,1,0,1_1_4_3.bmp,1_2_2_0.bmp,1_1_4_1.bmp,2,0,0,NaN,262.3523833,262.8580782,NaN,7,2,1
1,3,10,2,2,1,1,0,1_1_4_3.bmp,1_2_2_0.bmp,1_1_4_1.bmp,2,2,0,0.912889447,268.4144371,262.8580782,269.8319236,7,2,0
1,3,11,2,2,1,1,0,1_1_4_3.bmp,1_2_2_0.bmp,1_2_5_2.bmp,1,2,1,0.604231603,270.5151257,262.8580782,271.6238471,7,2,0
1,3,12,2,2,1,1,1,1_1_4_3.bmp,1_2_2_0.bmp,1_1_4_2.bmp,2,2,0,0.559321708,272.5759209,262.8580782,273.6397927,7,2,0
1,3,13,2,2,1,3,0,3_3_5_2.bmp,3_2_5_3.bmp,3_5_5_0.bmp,2,2,0,0.832609528,274.7220421,275.2267155,280.0635507,7,2,1
1,3,14,2,2,1,3,0,3_3_5_2.bmp,3_2_5_3.bmp,3_3_5_3.bmp,2,0,0,NaN,280.8249902,275.2267155,NaN,7,2,0
1,3,15,2,2,1,3,1,3_3_5_2.bmp,3_2_5_3.bmp,3_3_5_3.bmp,2,2,0,0.497240886,282.9178134,275.2267155,283.9195284,7,2,0
1,3,16,2,2,1,2,0,2_1_5_2.bmp,2_4_4_0.bmp,2_1_5_3.bmp,2,1,1,0.573875337,285.0681432,285.5729325,290.1511798,7,2,1
1,3,17,2,2,1,2,0,2_1_5_2.bmp,2_4_4_0.bmp,2_4_5_1.bmp,1,2,1,0.416217931,291.1343403,285.5729325,292.0551739,7,2,0
1,3,18,2,2,1,2,1,2_1_5_2.bmp,2_4_4_0.bmp,2_4_5_1.bmp,1,2,1,0.406624879,293.215944,285.5729325,294.127083,7,2,0
1,3,19,2,2,1,3,0,3_2_2_0.bmp,3_4_5_1.bmp,3_2_4_1.bmp,2,1,1,0.500139413,295.3658081,295.8705734,300.3748796,7,2,1
1,3,20,2,2,1,3,0,3_2_2_0.bmp,3_4_5_1.bmp,3_2_3_1.bmp,2,1,1,0.416713688,301.4857895,295.8705734,302.4067934,7,2,0
1,3,21,2,2,1,3,0,3_2_2_0.bmp,3_4_5_1.bmp,3_2_5_2.bmp,2,1,1,0.332300356,303.5942579,295.8705734,304.4307538,7,2,0
1,3,22,2,2,1,3,0,3_2_2_0.bmp,3_4_5_1.bmp,3_2_4_1.bmp,2,1,1,0.429080277,305.7213277,295.8705734,306.6546856,7,2,0
1,3,23,2,2,1,3,1,3_2_2_0.bmp,3_4_5_1.bmp,3_4_4_0.bmp,1,2,1,0.58148506,307.8169694,295.8705734,308.9025561,7,2,0
1,3,24,2,2,1,4,0,4_1_5_2.bmp,4_1_3_1.bmp,4_1_1_0.bmp,1,2,1,0.689731095,309.9266922,310.4315305,315.1263926,7,2,1
1,3,25,2,2,1,4,1,4_1_5_2.bmp,4_1_3_1.bmp,4_1_3_3.bmp,1,1,0,0.508114194,315.9936348,310.4315305,317.0063132,7,2,0
1,3,26,2,2,1,2,0,2_2_2_0.bmp,2_1_2_1.bmp,2_2_5_2.bmp,2,2,0,0.644090484,318.100697,318.6053884,323.2540807,7,2,1
1,3,27,2,2,1,2,0,2_2_2_0.bmp,2_1_2_1.bmp,2_2_4_1.bmp,2,1,1,0.375504846,324.1658897,318.6053884,325.0459876,7,2,0
1,3,28,2,2,1,2,0,2_2_2_0.bmp,2_1_2_1.bmp,2_2_4_2.bmp,2,1,1,0.561735895,326.2276042,318.6053884,327.2939059,7,2,0
1,3,29,2,2,1,2,0,2_2_2_0.bmp,2_1_2_1.bmp,2_1_2_3.bmp,1,1,0,0.466078188,328.2911768,318.6053884,329.26195,7,2,0
1,3,30,2,2,1,2,0,2_2_2_0.bmp,2_1_2_1.bmp,2_2_3_2.bmp,2,2,0,0.532531589,330.4000043,318.6053884,331.4377714,7,2,0
1,4,1,2,1,1,3,0,3_1_3_1.bmp,3_5_5_0.bmp,3_1_3_3.bmp,2,1,1,1.053507527,348.6023555,349.1071193,354.1649673,5,2,0
1,4,2,2,1,1,3,0,3_1_3_1.bmp,3_5_5_0.bmp,3_4_5_2.bmp,1,2,1,0.611226888,354.7453193,349.1071193,355.8609188,5,2,0
1,4,3,2,1,1,3,1,3_1_3_1.bmp,3_5_5_0.bmp,3_1_1_0.bmp,2,1,1,0.395857633,356.8408463,349.1071193,357.7408857,5,2,0
1,4,4,2,1,1,4,0,4_3_3_0.bmp,4_3_4_1.bmp,4_3_5_2.bmp,2,1,1,0.958083877,358.9370755,359.4419192,364.4045872,5,2,1
1,4,5,2,1,1,4,1,4_3_3_0.bmp,4_3_4_1.bmp,4_3_5_1.bmp,2,2,0,1.041402939,365.0025927,359.4419192,366.5485385,5,2,0
1,4,6,2,1,1,1,0,1_1_3_2.bmp,1_3_3_0.bmp,1_1_3_3.bmp,2,1,1,0.825513289,367.1255675,367.6303664,372.4603505,5,2,1
1,4,7,2,1,1,1,0,1_1_3_2.bmp,1_3_3_0.bmp,1_3_4_2.bmp,1,2,1,0.42895799,373.1907115,367.6303664,374.1242298,5,2,0
1,4,8,2,1,1,1,0,1_1_3_2.bmp,1_3_3_0.bmp,1_3_3_0.bmp,2,2,0,0.378687908,375.2489254,367.6303664,376.1321587,5,2,0
1,4,9,2,1,1,1,0,1_1_3_2.bmp,1_3_3_0.bmp,1_3_5_1.bmp,1,1,0,0.4096505,377.3538709,367.6303664,378.2680902,5,2,0
1,4,10,2,1,1,1,1,1_1_3_2.bmp,1_3_3_0.bmp,1_1_3_3.bmp,2,1,1,0.506017591,379.4094744,367.6303664,380.420022,5,2,0
1,4,11,2,1,1,2,0,2_4_5_1.bmp,2_3_5_1.bmp,2_4_4_0.bmp,2,1,1,0.495719963,381.4788065,381.9835886,386.4838978,5,2,1
1,4,12,2,1,1,2,0,2_4_5_1.bmp,2_3_5_1.bmp,2_3_5_3.bmp,1,2,1,0.527675271,387.5476251,381.9835886,388.5798145,5,2,0
1,4,13,2,1,1,2,0,2_4_5_1.bmp,2_3_5_1.bmp,2_3_5_3.bmp,1,2,1,0.47517368,389.6319066,381.9835886,390.6116677,5,2,0
1,4,14,2,1,1,2,1,2_4_5_1.bmp,2_3_5_1.bmp,2_4_5_3.bmp,2,1,1,0.58064047,391.6944654,381.9835886,392.779605,5,2,0
1,4,15,2,1,1,3,0,3_1_2_2.bmp,3_3_5_3.bmp,3_3_5_2.bmp,1,1,0,0.680540658,393.8457528,394.3505574,399.0353703,5,2,1
1,4,16,2,1,1,3,0,3_1_2_2.bmp,3_3_5_3.bmp,3_2_2_0.bmp,2,1,1,0.607036387,399.9400056,394.3505574,401.0512958,5,2,0
1,4,17,2,1,1,3,0,3_1_2_2.bmp,3_3_5_3.bmp,3_3_5_1.bmp,1,1,0,0.63995677,402.0749489,394.3505574,403.219271,5,2,0
1,4,18,2,1,1,3,0,3_1_2_2.bmp,3_3_5_3.bmp,3_3_5_1.bmp,1,1,0,0.411638036,404.1514277,394.3505574,405.0672424,5,2,0
1,4,19,2,1,1,3,0,3_1_2_2.bmp,3_3_5_3.bmp,3_1_2_3.bmp,2,1,1,0.340944859,406.253986,394.3505574,407.0991001,5,2,0
1,4,20,2,1,1,3,1,3_1_2_2.bmp,3_3_5_3.bmp,3_1_2_3.bmp,2,1,1,0.425274965,408.3296578,394.3505574,409.2590229,5,2,0
1,4,21,2,1,1,4,0,4_1_4_3.bmp,4_1_3_2.bmp,4_1_4_2.bmp,2,1,1,0.612649561,410.4647478,410.969522,415.5868134,5,2,1
1,4,22,2,1,1,4,1,4_1_4_3.bmp,4_1_3_2.bmp,4_1_4_1.bmp,2,2,0,1.050606296,416.5355425,410.969522,418.0907055,5,2,0
1,4,23,2,1,1,1,0,1_4_4_0.bmp,1_1_5_1.bmp,1_1_5_3.bmp,1,2,1,1.005024875,418.6080363,419.1128133,424.1225034,5,2,1
1,4,24,2,1,1,1,0,1_4_4_0.bmp,1_1_5_1.bmp,1_4_5_1.bmp,2,1,1,0.581527425,424.6844628,419.1128133,425.7705176,5,2,0
1,4,25,2,1,1,1,0,1_4_4_0.bmp,1_1_5_1.bmp,1_1_1_0.bmp,1,2,1,0.540829363,426.7970733,419.1128133,427.84247,5,2,0
1,4,26,2,1,1,1,0,1_4_4_0.bmp,1_1_5_1.bmp,1_4_5_2.bmp,2,1,1,0.64584937,428.8679231,419.1128133,430.0182823,5,2,0
1,4,27,2,1,1,1,0,1_4_4_0.bmp,1_1_5_1.bmp,1_4_5_2.bmp,2,1,1,0.757697006,430.931809,419.1128133,432.1941833,5,2,0
1,4,28,2,1,1,1,1,1_4_4_0.bmp,1_1_5_1.bmp,1_1_5_3.bmp,1,1,0,1.193829054,432.9997476,419.1128133,434.698119,5,2,0
1,4,29,2,1,1,2,0,2_4_5_3.bmp,2_3_4_1.bmp,2_3_3_0.bmp,1,0,0,NaN,435.0811407,435.5859096,NaN,5,2,1
1,4,30,2,1,1,2,0,2_4_5_3.bmp,2_3_4_1.bmp,2_4_5_1.bmp,2,2,0,0.687490874,441.1537532,435.5859096,442.3458748,5,2,0
1,5,1,1,1,2,1,0,1_1_3_2.bmp,1_5_5_0.bmp,1_3_5_1.bmp,1,2,1,0.744423933,459.3388107,459.844039,464.5931278,2,2,0
1,5,2,1,1,2,1,0,1_1_3_2.bmp,1_5_5_0.bmp,1_2_5_2.bmp,1,1,0,0.524365716,465.4121557,459.844039,466.4410884,2,2,0
1,5,3,1,1,2,1,0,1_1_3_2.bmp,1_5_5_0.bmp,1_1_3_3.bmp,2,1,1,0.505731254,467.4787218,459.844039,468.4889356,2,2,0
1,5,4,1,1,2,1,1,1_1_3_2.bmp,1_5_5_0.bmp,1_3_3_0.bmp,2,2,0,0.379940221,469.5484295,459.844039,470.4329562,2,2,0
1,5,5,1,1,2,2,0,2_3_3_0.bmp,2_2_4_1.bmp,2_3_4_1.bmp,2,1,1,0.615491602,471.6353814,472.1401686,476.7607671,2,2,1
1,5,6,1,1,2,2,0,2_3_3_0.bmp,2_2_4_1.bmp,2_3_5_1.bmp,2,1,1,0.402899188,477.7092516,472.1401686,478.616636,2,2,0
1,5,7,1,1,2,2,0,2_3_3_0.bmp,2_2_4_1.bmp,2_3_5_2.bmp,2,1,1,0.317824545,479.7781772,472.1401686,480.6005146,2,2,0
1,5,8,1,1,2,2,1,2_3_3_0.bmp,2_2_4_1.bmp,2_2_4_3.bmp,1,2,1,0.397701549,481.8501987,472.1401686,482.7524864,2,2,0
1,5,9,1,1,2,3,0,3_2_5_3.bmp,3_4_5_2.bmp,3_2_5_1.bmp,2,2,0,0.652484705,484.0147393,484.5195427,489.1762195,2,2,1
1,5,10,1,1,2,3,0,3_2_5_3.bmp,3_4_5_2.bmp,3_2_5_1.bmp,2,2,0,0.572975463,490.098936,484.5195427,491.1761446,2,2,0
1,5,11,1,1,2,3,0,3_2_5_3.bmp,3_4_5_2.bmp,3_2_5_2.bmp,2,2,0,0.402044683,492.2059433,484.5195427,493.1121277,2,2,0
1,5,12,1,1,2,3,1,3_2_5_3.bmp,3_4_5_2.bmp,3_2_5_1.bmp,2,2,0,0.517184448,494.2822562,484.5195427,495.3039953,2,2,0
1,5,13,1,1,2,4,0,4_3_4_2.bmp,4_2_2_0.bmp,4_2_4_1.bmp,1,1,0,0.746029586,496.4083333,496.9130625,501.6637573,2,2,1
1,5,14,1,1,2,4,0,4_3_4_2.bmp,4_2_2_0.bmp,4_2_5_1.bmp,1,2,1,0.597932482,502.4812051,496.9130625,503.5837265,2,2,0
1,5,15,1,1,2,4,0,4_3_4_2.bmp,4_2_2_0.bmp,4_3_4_3.bmp,2,1,1,0.534188319,504.5608736,496.9130625,505.5996466,2,2,0
1,5,16,1,1,2,4,1,4_3_4_2.bmp,4_2_2_0.bmp,4_3_4_3.bmp,2,2,0,0.621470734,506.6255993,496.9130625,507.7516307,2,2,0
1,5,17,1,1,2,1,0,1_3_5_1.bmp,1_2_2_0.bmp,1_3_3_0.bmp,2,1,1,0.481913274,508.704109,509.2089542,513.6953734,2,2,1
1,5,18,1,1,2,1,0,1_3_5_1.bmp,1_2_2_0.bmp,1_2_4_2.bmp,1,2,1,0.530307892,514.7802164,509.2089542,515.8152869,2,2,0
1,5,19,1,1,2,1,0,1_3_5_1.bmp,1_2_2_0.bmp,1_3_5_3.bmp,2,1,1,0.498446928,516.8442959,509.2089542,517.8472524,2,2,0
1,5,20,1,1,2,1,1,1_3_5_1.bmp,1_2_2_0.bmp,1_3_5_3.bmp,2,1,1,0.529742128,518.9088963,509.2089542,519.9431421,2,2,0
1,5,21,1,1,2,2,0,2_2_3_3.bmp,2_1_1_0.bmp,2_2_3_2.bmp,2,1,1,0.605354719,520.9881905,521.4929681,526.1028964,2,2,1
1,5,22,1,1,2,2,0,2_2_3_3.bmp,2_1_1_0.bmp,2_2_3_1.bmp,2,2,0,0.389596069,527.0649571,521.4929681,527.9589113,2,2,0
1,5,23,1,1,2,2,0,2_2_3_3.bmp,2_1_1_0.bmp,2_2_3_1.bmp,2,2,0,0.388068836,529.1300308,521.4929681,530.0227895,2,2,0
1,5,24,1,1,2,2,1,2_2_3_3.bmp,2_1_1_0.bmp,2_1_2_2.bmp,1,1,0,0.519541247,531.1986304,521.4929681,532.2226698,2,2,0
1,5,25,1,1,2,3,0,3_1_5_1.bmp,3_5_5_0.bmp,3_3_5_2.bmp,1,1,0,0.495620811,533.3777228,533.8824959,538.3824863,2,2,1
1,5,26,1,1,2,3,0,3_1_5_1.bmp,3_5_5_0.bmp,3_4_5_2.bmp,1,2,1,0.509880291,539.5039399,533.8824959,540.5184127,2,2,0
1,5,27,1,1,2,3,0,3_1_5_1.bmp,3_5_5_0.bmp,3_1_1_0.bmp,2,1,1,0.50991214,541.6242941,533.8824959,542.6384428,2,2,0
1,5,28,1,1,2,3,1,3_1_5_1.bmp,3_5_5_0.bmp,3_1_1_0.bmp,2,1,1,0.431507685,543.7024733,533.8824959,544.638355,2,2,0
1,5,29,1,1,2,4,0,4_1_3_2.bmp,4_3_3_0.bmp,4_3_3_0.bmp,2,2,0,0.813540902,545.8510878,546.3558428,551.1740345,2,2,1
1,5,30,1,1,2,4,0,4_1_3_2.bmp,4_3_3_0.bmp,4_1_3_3.bmp,2,1,1,0.702999962,551.9265174,546.3558428,553.1340669,2,2,0
1,6,1,1,1,1,4,0,4_3_3_0.bmp,4_2_4_3.bmp,4_3_5_1.bmp,2,1,1,0.484936792,570.1388391,570.6436182,575.1331937,1,2,0
1,6,2,1,1,1,4,0,4_3_3_0.bmp,4_2_4_3.bmp,4_2_4_1.bmp,1,2,1,0.455581956,576.2131398,570.6436182,577.1732539,1,2,0
1,6,3,1,1,1,4,0,4_3_3_0.bmp,4_2_4_3.bmp,4_3_5_2.bmp,2,1,1,0.530138734,578.282435,570.6436182,579.3171077,1,2,0
1,6,4,1,1,1,4,1,4_3_3_0.bmp,4_2_4_3.bmp,4_2_4_1.bmp,1,2,1,0.401719887,580.3468035,570.6436182,581.2529945,1,2,0
1,6,5,1,1,1,1,0,1_3_5_2.bmp,1_3_3_0.bmp,1_3_5_2.bmp,1,1,0,0.52381858,582.4593326,582.9643719,587.4927487,1,2,1
1,6,6,1,1,1,1,0,1_3_5_2.bmp,1_3_3_0.bmp,1_3_5_3.bmp,2,1,1,0.623305937,588.5327795,582.9643719,589.6606974,1,2,0
1,6,7,1,1,1,1,0,1_3_5_2.bmp,1_3_3_0.bmp,1_3_5_3.bmp,2,1,1,0.42362845,590.5964819,582.9643719,591.5246758,1,2,0
1,6,8,1,1,1,1,1,1_3_5_2.bmp,1_3_3_0.bmp,1_3_5_2.bmp,1,1,0,0.44587563,592.6621652,582.9643719,593.6125234,1,2,0
1,6,9,1,1,1,2,0,2_4_5_3.bmp,2_1_1_0.bmp,2_4_5_1.bmp,2,2,0,0.669669153,594.7933897,595.2980703,599.9723289,1,2,1
1,6,10,1,1,1,2,0,2_4_5_3.bmp,2_1_1_0.bmp,2_1_3_2.bmp,1,1,0,0.54564632,600.8662279,595.2980703,601.9163453,1,2,0
1,6,11,1,1,1,2,0,2_4_5_3.bmp,2_1_1_0.bmp,2_1_5_1.bmp,1,1,0,0.450662542,602.9369823,595.2980703,603.892168,1,2,0
1,6,12,1,1,1,2,1,2_4_5_3.bmp,2_1_1_0.bmp,2_1_3_2.bmp,1,1,0,0.496875227,605.0027648,595.2980703,606.0041466,1,2,0
1,6,13,1,1,1,3,0,3_4_5_1.bmp,3_2_5_2.bmp,3_2_5_3.bmp,1,2,1,0.583663387,607.2072139,607.7119774,612.2998778,1,2,1
1,6,14,1,1,1,3,0,3_4_5_1.bmp,3_2_5_2.bmp,3_2_5_3.bmp,1,2,1,0.399891294,613.2917582,607.7119774,614.1958061,1,2,0
1,6,15,1,1,1,3,0,3_4_5_1.bmp,3_2_5_2.bmp,3_4_5_3.bmp,2,2,0,0.549491593,615.3980363,607.7119774,616.45177,1,2,0
1,6,16,1,1,1,3,1,3_4_5_1.bmp,3_2_5_2.bmp,3_2_5_3.bmp,1,2,1,0.615832923,617.5236242,607.7119774,618.6436437,1,2,0
1,6,17,1,1,1,4,0,4_2_3_1.bmp,4_3_4_2.bmp,4_3_4_3.bmp,1,2,1,0.647643411,619.6145614,620.1193101,624.7715124,1,2,1
1,6,18,1,1,1,4,0,4_2_3_1.bmp,4_3_4_2.bmp,4_2_2_0.bmp,2,1,1,0.465827605,625.6890794,620.1193101,626.6593871,1,2,0
1,6,19,1,1,1,4,0,4_2_3_1.bmp,4_3_4_2.bmp,4_2_2_0.bmp,2,1,1,0.69784589,627.7528822,620.1193101,628.9553055,1,2,0
1,6,20,1,1,1,4,1,4_2_3_1.bmp,4_3_4_2.bmp,4_4_4_0.bmp,1,2,1,0.860318751,629.8622738,620.1193101,631.2272203,1,2,0
1,6,21,1,1,1,1,0,1_1_1_0.bmp,1_4_5_3.bmp,1_4_5_1.bmp,1,2,1,0.798098516,631.9434515,632.448319,637.2510608,1,2,1
1,6,22,1,1,1,1,0,1_1_1_0.bmp,1_4_5_3.bmp,1_4_5_2.bmp,1,2,1,0.496600908,638.0168855,632.448319,639.0189277,1,2,0
1,6,23,1,1,1,1,0,1_1_1_0.bmp,1_4_5_3.bmp,1_4_5_1.bmp,1,2,1,0.52131726,640.0809944,632.448319,641.1068913,1,2,0
1,6,24,1,1,1,1,1,1_1_1_0.bmp,1_4_5_3.bmp,1_4_5_2.bmp,1,2,1,0.547534104,642.1747866,632.448319,643.2268585,1,2,0
1,6,25,1,1,1,2,0,2_3_4_2.bmp,2_2_3_2.bmp,2_4_4_0.bmp,2,1,1,0.62988749,644.2474928,644.7521698,649.3866176,1,2,1
1,6,26,1,1,1,2,0,2_3_4_2.bmp,2_2_3_2.bmp,2_4_4_0.bmp,2,1,1,0.588901889,650.3170112,644.7521698,651.4105933,1,2,0
1,6,27,1,1,1,2,0,2_3_4_2.bmp,2_2_3_2.bmp,2_4_4_0.bmp,2,1,1,0.372751441,652.3811027,644.7521698,653.2584731,1,2,0
1,6,28,1,1,1,2,1,2_3_4_2.bmp,2_2_3_2.bmp,2_3_3_0.bmp,1,2,1,0.458014471,654.5038345,644.7521698,655.4664066,1,2,0
1,6,29,1,1,1,3,0,3_2_4_1.bmp,3_1_4_3.bmp,3_1_4_1.bmp,1,2,1,0.792392801,656.6447818,657.1494951,661.9461803,1,2,1
1,6,30,1,1,1,3,0,3_2_4_1.bmp,3_1_4_3.bmp,3_2_4_3.bmp,2,2,0,0.728681688,662.7532268,657.1494951,663.9861209,1,2,0
1,7,1,2,2,2,3,0,3_3_3_0.bmp,3_5_5_0.bmp,3_3_5_2.bmp,1,1,0,0.655636519,680.972542,681.4772892,686.137319,8,2,0
1,7,2,2,2,2,3,1,3_3_3_0.bmp,3_5_5_0.bmp,3_3_4_1.bmp,2,1,1,0.455342791,687.0896176,681.4772892,688.049198,8,2,0
1,7,3,2,2,2,1,0,1_1_5_2.bmp,1_3_4_2.bmp,1_3_4_3.bmp,1,2,1,0.589252524,689.2223898,689.7271289,694.3210719,8,2,1
1,7,4,2,2,2,1,0,1_1_5_2.bmp,1_3_4_2.bmp,1_5_5_0.bmp,2,1,1,0.404868396,695.2995458,689.7271289,696.2089136,8,2,0
1,7,5,2,2,2,1,1,1_1_5_2.bmp,1_3_4_2.bmp,1_4_4_0.bmp,1,2,1,0.34123991,697.3706404,689.7271289,698.2168806,8,2,0
1,7,6,2,2,2,3,0,3_2_5_1.bmp,3_1_2_2.bmp,3_2_2_0.bmp,2,2,0,0.528115444,699.5075367,700.0122224,704.5446425,8,2,1
1,7,7,2,2,2,3,0,3_2_5_1.bmp,3_1_2_2.bmp,3_2_5_3.bmp,2,2,0,0.4958098,705.6164687,700.0122224,706.6165555,8,2,0
1,7,8,2,2,2,3,0,3_2_5_1.bmp,3_1_2_2.bmp,3_2_2_0.bmp,1,2,1,0.426867698,707.6934445,700.0122224,708.6245375,8,2,0
1,7,9,2,2,2,3,0,3_2_5_1.bmp,3_1_2_2.bmp,3_1_2_3.bmp,1,2,1,0.494309008,709.8018479,700.0122224,710.8005232,8,2,0
1,7,10,2,2,2,3,0,3_2_5_1.bmp,3_1_2_2.bmp,3_2_2_0.bmp,2,2,0,0.442244885,711.8779416,700.0122224,712.8243565,8,2,0
1,7,11,2,2,2,3,1,3_2_5_1.bmp,3_1_2_2.bmp,3_1_2_3.bmp,1,2,1,0.497166672,713.9989424,700.0122224,715.0003467,8,2,0
1,7,12,2,2,2,2,0,2_2_3_1.bmp,2_5_5_0.bmp,2_2_2_0.bmp,2,1,1,0.685527975,716.1013418,716.6060419,721.2960584,8,2,1
1,7,13,2,2,2,2,0,2_2_3_1.bmp,2_5_5_0.bmp,2_2_5_1.bmp,1,1,0,0.43736423,722.1780952,716.6060419,723.1200859,8,2,0
1,7,14,2,2,2,2,0,2_2_3_1.bmp,2_5_5_0.bmp,2_2_2_0.bmp,2,1,1,0.508197421,724.2432326,716.6060419,725.2560382,8,2,0
1,7,15,2,2,2,2,0,2_2_3_1.bmp,2_5_5_0.bmp,2_2_3_3.bmp,2,2,0,0.475593421,726.3397797,716.6060419,727.3198713,8,2,0
1,7,16,2,2,2,2,1,2_2_3_1.bmp,2_5_5_0.bmp,2_2_2_0.bmp,2,1,1,0.460503773,728.4027177,716.6060419,729.3678029,8,2,0
1,7,17,2,2,2,3,0,3_1_2_2.bmp,3_1_1_0.bmp,3_2_2_0.bmp,2,1,1,0.538676575,730.5359989,731.0407371,735.5836886,8,2,1
1,7,18,2,2,2,3,0,3_1_2_2.bmp,3_1_1_0.bmp,3_1_2_1.bmp,1,2,1,0.513709039,736.6456532,731.0407371,737.663474,8,2,0
1,7,19,2,2,2,3,0,3_1_2_2.bmp,3_1_1_0.bmp,3_1_2_1.bmp,1,2,1,0.428018155,738.7712504,731.0407371,739.7034251,8,2,0
1,7,20,2,2,2,3,1,3_1_2_2.bmp,3_1_1_0.bmp,3_1_5_1.bmp,1,2,1,0.459462984,740.8756376,731.0407371,741.8393269,8,2,0
1,7,21,2,2,2,4,0,4_4_4_0.bmp,4_1_1_0.bmp,4_4_5_1.bmp,2,1,1,0.460311179,742.9971435,743.5022709,747.9672025,8,2,1
1,7,22,2,2,2,4,0,4_4_4_0.bmp,4_1_1_0.bmp,4_1_4_2.bmp,1,1,0,0.421678171,749.0728129,743.5022709,749.9990364,8,2,0
1,7,23,2,2,2,4,0,4_4_4_0.bmp,4_1_1_0.bmp,4_4_5_1.bmp,2,1,1,0.478942337,751.175614,743.5022709,752.1590179,8,2,0
1,7,24,2,2,2,4,1,4_4_4_0.bmp,4_1_1_0.bmp,4_4_5_2.bmp,2,1,1,0.455602387,753.2463943,743.5022709,754.2068597,8,2,0
1,7,25,2,2,2,3,1,3_4_5_2.bmp,3_3_4_3.bmp,3_3_4_1.bmp,1,1,0,0.532909266,755.4209565,755.9256361,760.4626977,8,2,1
1,7,26,2,2,2,2,0,2_5_5_0.bmp,2_3_5_1.bmp,2_2_5_1.bmp,2,1,1,0.856629716,761.528717,762.0333903,766.8945885,8,2,1
1,7,27,2,2,2,2,0,2_5_5_0.bmp,2_3_5_1.bmp,2_4_5_2.bmp,2,2,0,0.458820903,767.6031103,762.0333903,768.5663894,8,2,0
1,7,28,2,2,2,2,0,2_5_5_0.bmp,2_3_5_1.bmp,2_3_5_3.bmp,1,2,1,0.805699225,769.6720314,762.0333903,770.9822949,8,2,0
1,7,29,2,2,2,2,0,2_5_5_0.bmp,2_3_5_1.bmp,2_4_5_1.bmp,2,2,0,0.672903593,771.7406562,762.0333903,772.9182707,8,2,0
1,7,30,2,2,2,2,0,2_5_5_0.bmp,2_3_5_1.bmp,2_4_5_2.bmp,2,2,0,0.434788997,773.834817,762.0333903,774.7741781,8,2,0
1,8,1,2,1,2,1,1,1_1_4_3.bmp,1_2_4_2.bmp,1_4_4_0.bmp,1,1,0,0.646836678,792.0250225,792.5298587,797.1813874,6,2,0
1,8,2,2,1,2,2,0,2_2_2_0.bmp,2_2_5_3.bmp,2_2_3_1.bmp,2,1,1,1.268897815,798.1311206,798.6357125,803.909155,6,2,1
1,8,3,2,1,2,2,0,2_2_2_0.bmp,2_2_5_3.bmp,2_2_4_1.bmp,2,1,1,0.456437663,804.2041588,798.6357125,805.1651629,6,2,0
1,8,4,2,1,2,2,0,2_2_2_0.bmp,2_2_5_3.bmp,2_2_5_2.bmp,1,1,0,0.354815545,806.2737562,798.6357125,807.133085,6,2,0
1,8,5,2,1,2,2,0,2_2_2_0.bmp,2_2_5_3.bmp,2_2_5_1.bmp,1,1,0,0.555760068,808.3446754,798.6357125,809.4049591,6,2,0
1,8,6,2,1,2,2,1,2_2_2_0.bmp,2_2_5_3.bmp,2_2_5_2.bmp,1,1,0,0.479395729,810.4369292,798.6357125,811.4209402,6,2,0
1,8,7,2,1,2,3,0,3_2_4_3.bmp,3_3_4_1.bmp,3_2_4_2.bmp,2,2,0,0.733518777,812.5943874,813.0991019,817.8367796,6,2,1
1,8,8,2,1,2,3,0,3_2_4_3.bmp,3_3_4_1.bmp,3_3_4_3.bmp,1,1,0,0.421576316,818.8228022,813.0991019,819.7485985,6,2,0
1,8,9,2,1,2,3,0,3_2_4_3.bmp,3_3_4_1.bmp,3_3_4_3.bmp,1,1,0,0.422219598,820.9019263,813.0991019,821.8285332,6,2,0
1,8,10,2,1,2,3,0,3_2_4_3.bmp,3_3_4_1.bmp,3_2_4_2.bmp,2,2,0,0.474743123,823.0575496,813.0991019,824.0364246,6,2,0
1,8,11,2,1,2,3,0,3_2_4_3.bmp,3_3_4_1.bmp,3_3_3_0.bmp,1,1,0,0.786072046,825.1861118,813.0991019,826.4763848,6,2,0
1,8,12,2,1,2,3,1,3_2_4_3.bmp,3_3_4_1.bmp,3_3_3_0.bmp,1,1,0,0.994146159,827.2659731,813.0991019,828.764342,6,2,0
1,8,13,2,1,2,4,1,4_1_5_2.bmp,4_4_5_2.bmp,4_1_5_3.bmp,2,1,1,0.79063752,829.3681331,829.8728112,834.6680317,6,2,1
1,8,14,2,1,2,1,0,1_2_5_3.bmp,1_2_4_2.bmp,1_2_4_3.bmp,1,1,0,1.141602083,835.4649647,835.9697288,841.115851,6,2,1
1,8,15,2,1,2,1,0,1_2_5_3.bmp,1_2_4_2.bmp,1_2_5_1.bmp,2,2,0,0.632523717,841.5386709,835.9697288,842.6758108,6,2,0
1,8,16,2,1,2,1,0,1_2_5_3.bmp,1_2_4_2.bmp,1_2_5_1.bmp,2,2,0,0.445904775,843.6052472,835.9697288,844.5557258,6,2,0
1,8,17,2,1,2,1,0,1_2_5_3.bmp,1_2_4_2.bmp,1_4_4_0.bmp,1,1,0,0.472190724,845.7228894,835.9697288,846.6996429,6,2,0
1,8,18,2,1,2,1,0,1_2_5_3.bmp,1_2_4_2.bmp,1_4_4_0.bmp,1,1,0,0.488102428,847.7868956,835.9697288,848.7796101,6,2,0
1,8,19,2,1,2,1,0,1_2_5_3.bmp,1_2_4_2.bmp,1_4_4_0.bmp,1,1,0,0.620906172,849.8540199,835.9697288,850.9795093,6,2,0
1,8,20,2,1,2,1,1,1_2_5_3.bmp,1_2_4_2.bmp,1_2_4_3.bmp,1,1,0,1.19277835,851.9220805,835.9697288,853.6193868,6,2,0
1,8,21,2,1,2,2,0,2_3_5_1.bmp,2_1_4_2.bmp,2_1_4_3.bmp,1,2,1,0.85292025,854.0009567,854.5057529,859.3632443,6,2,1
1,8,22,2,1,2,2,0,2_3_5_1.bmp,2_1_4_2.bmp,2_4_4_0.bmp,1,2,1,0.53499415,860.0755699,854.5057529,861.1151193,6,2,0
1,8,23,2,1,2,2,1,2_3_5_1.bmp,2_1_4_2.bmp,2_1_4_3.bmp,1,2,1,0.597504629,862.1410132,854.5057529,863.2430638,6,2,0
1,8,24,2,1,2,3,0,3_1_1_0.bmp,3_4_4_0.bmp,3_1_2_2.bmp,2,1,1,0.662093982,864.2959644,864.800705,869.4669642,6,2,1
1,8,25,2,1,2,3,0,3_1_1_0.bmp,3_4_4_0.bmp,3_1_4_1.bmp,2,1,1,0.358982911,870.4436715,864.800705,871.3067601,6,2,0
1,8,26,2,1,2,3,1,3_1_1_0.bmp,3_4_4_0.bmp,3_4_5_1.bmp,1,2,1,0.442747252,872.5517898,864.800705,873.4987128,6,2,0
1,8,27,2,1,2,4,0,4_1_5_2.bmp,4_1_1_0.bmp,4_1_5_2.bmp,1,1,0,0.518483031,874.6706138,875.1754001,879.6984886,6,2,1
1,8,28,2,1,2,4,0,4_1_5_2.bmp,4_1_1_0.bmp,4_1_5_3.bmp,2,2,0,0.729279902,880.7445585,875.1754001,881.9783814,6,2,0
1,8,29,2,1,2,4,0,4_1_5_2.bmp,4_1_1_0.bmp,4_1_5_3.bmp,2,1,1,0.448734798,882.8491155,875.1754001,883.802341,6,2,0
1,8,30,2,1,2,4,0,4_1_5_2.bmp,4_1_1_0.bmp,4_1_5_1.bmp,1,2,1,0.496277014,884.9213251,875.1754001,885.9222647,6,2,0
1,1,1,1,1,2,4,0,4_1_5_1.bmp,4_1_4_1.bmp,4_1_1_0.bmp,1,2,1,1.049222683,16.14904535,16.65635912,21.71271861,2,3,0
1,1,2,1,1,2,4,0,4_1_5_1.bmp,4_1_4_1.bmp,4_1_5_3.bmp,2,1,1,0.887275024,22.23208409,16.65635912,23.62465229,2,3,0
1,1,3,1,1,2,4,0,4_1_5_1.bmp,4_1_4_1.bmp,4_1_1_0.bmp,1,2,1,0.701157848,24.29037792,16.65635912,25.49642424,2,3,0
1,1,4,1,1,2,4,1,4_1_5_1.bmp,4_1_4_1.bmp,4_1_4_3.bmp,1,2,1,1.062029143,26.40161232,16.65635912,27.96832352,2,3,0
1,1,5,1,1,2,1,0,1_3_5_1.bmp,1_4_4_0.bmp,1_4_5_1.bmp,1,2,1,0.677562209,28.47463826,28.98161822,33.66411126,2,3,1
1,1,6,1,1,2,1,0,1_3_5_1.bmp,1_4_4_0.bmp,1_3_3_0.bmp,2,1,1,0.520564009,34.54295691,28.98161822,35.56809901,2,3,0
1,1,7,1,1,2,1,0,1_3_5_1.bmp,1_4_4_0.bmp,1_3_5_3.bmp,2,1,1,0.677350085,36.61003467,28.98161822,37.79196675,2,3,0
1,1,8,1,1,2,1,1,1_3_5_1.bmp,1_4_4_0.bmp,1_3_5_3.bmp,2,1,1,0.405695559,38.69765089,28.98161822,39.6079618,2,3,0
1,1,9,1,1,2,2,0,2_3_4_2.bmp,2_1_4_1.bmp,2_3_4_3.bmp,2,1,1,0.572448758,40.77391668,41.27857019,45.85573104,2,3,1
1,1,10,1,1,2,2,0,2_3_4_2.bmp,2_1_4_1.bmp,2_1_1_0.bmp,1,2,1,0.437907159,46.84119544,41.27857019,47.78374289,2,3,0
1,1,11,1,1,2,2,0,2_3_4_2.bmp,2_1_4_1.bmp,2_4_4_0.bmp,2,1,1,0.415897342,48.90299293,41.27857019,49.82357863,2,3,0
1,1,12,1,1,2,2,1,2_3_4_2.bmp,2_1_4_1.bmp,2_4_4_0.bmp,2,1,1,0.484475888,51.01037364,41.27857019,51.9994784,2,3,0
1,1,13,1,1,2,3,0,3_2_2_0.bmp,3_1_5_1.bmp,3_2_5_1.bmp,2,1,1,0.547756744,53.13445236,53.63916296,58.19127365,2,3,1
1,1,14,1,1,2,3,0,3_2_2_0.bmp,3_1_5_1.bmp,3_1_5_3.bmp,1,2,1,0.570019548,59.23684876,53.63916296,60.31120694,2,3,0
1,1,15,1,1,2,3,0,3_2_2_0.bmp,3_1_5_1.bmp,3_1_5_3.bmp,1,2,1,0.451819309,61.3311526,53.63916296,62.28719306,2,3,0
1,1,16,1,1,2,3,1,3_2_2_0.bmp,3_1_5_1.bmp,3_2_3_2.bmp,2,1,1,0.560916844,63.44581193,53.63916296,64.51105178,2,3,0
1,1,17,1,1,2,4,0,4_4_4_0.bmp,4_3_5_1.bmp,4_3_5_3.bmp,1,1,0,0.551017324,65.55442813,66.05918891,70.61487296,2,3,1
1,1,18,1,1,2,4,0,4_4_4_0.bmp,4_3_5_1.bmp,4_4_5_1.bmp,2,1,1,0.569978085,71.62011026,66.05918891,72.69472863,2,3,0
1,1,19,1,1,2,4,0,4_4_4_0.bmp,4_3_5_1.bmp,4_4_5_1.bmp,2,1,1,0.476701814,73.72886557,66.05918891,74.71069802,2,3,0
1,1,20,1,1,2,4,1,4_4_4_0.bmp,4_3_5_1.bmp,4_4_5_2.bmp,2,1,1,0.753320822,75.78858178,66.05918891,77.04657624,2,3,0
1,1,21,1,1,2,1,0,1_3_5_1.bmp,1_5_5_0.bmp,1_3_5_2.bmp,1,1,0,0.75356149,77.85543629,78.36010332,83.1183724,2,3,1
1,1,22,1,1,2,1,0,1_3_5_1.bmp,1_5_5_0.bmp,1_3_5_3.bmp,2,2,0,0.50741142,83.92214418,78.36010332,84.93431307,2,3,0
1,1,23,1,1,2,1,0,1_3_5_1.bmp,1_5_5_0.bmp,1_4_5_2.bmp,1,1,0,0.478638573,86.03096139,78.36010332,87.01423755,2,3,0
1,1,24,1,1,2,1,1,1_3_5_1.bmp,1_5_5_0.bmp,1_3_3_0.bmp,2,1,1,0.713850736,88.09171479,78.36010332,89.31016645,2,3,0
1,1,25,1,1,2,2,0,2_1_3_2.bmp,2_5_5_0.bmp,2_3_3_0.bmp,2,1,1,0.488597884,90.16002412,90.66470257,95.15793503,2,3,1
1,1,26,1,1,2,2,0,2_1_3_2.bmp,2_5_5_0.bmp,2_1_3_3.bmp,2,1,1,0.401967766,96.23538973,90.66470257,97.14192538,2,3,0
1,1,27,1,1,2,2,0,2_1_3_2.bmp,2_5_5_0.bmp,2_3_5_1.bmp,1,1,0,0.389188947,98.34393322,90.66470257,99.23780843,2,3,0
1,1,28,1,1,2,2,1,2_1_3_2.bmp,2_5_5_0.bmp,2_3_3_0.bmp,2,1,1,0.333699292,100.3994604,90.66470257,101.2377997,2,3,0
1,1,29,1,1,2,3,0,3_4_4_0.bmp,3_2_5_3.bmp,3_4_5_2.bmp,2,2,0,0.710440527,102.5459483,103.0506544,107.7655312,2,3,1
1,1,30,1,1,2,3,0,3_4_4_0.bmp,3_2_5_3.bmp,3_4_5_2.bmp,2,2,0,0.4732222,108.6199029,103.0506544,109.597504,2,3,0
1,2,1,1,2,1,3,0,3_2_2_0.bmp,3_4_5_2.bmp,3_5_5_0.bmp,1,2,1,0.553572427,126.8535786,127.3584971,131.9168288,3,3,0
1,2,2,1,2,1,3,0,3_2_2_0.bmp,3_4_5_2.bmp,3_2_3_1.bmp,2,1,1,0.463941925,132.9565143,127.3584971,133.9246557,3,3,0
1,2,3,1,2,1,3,0,3_2_2_0.bmp,3_4_5_2.bmp,3_4_5_3.bmp,1,2,1,0.478660506,135.0935785,127.3584971,136.0765314,3,3,0
1,2,4,1,2,1,3,1,3_2_2_0.bmp,3_4_5_2.bmp,3_2_5_2.bmp,2,1,1,0.446489168,137.1896437,127.3584971,138.1404706,3,3,0
1,2,5,1,2,1,2,0,2_1_3_2.bmp,2_2_3_2.bmp,2_1_3_3.bmp,2,1,1,0.493859221,139.2887482,139.793683,144.2922272,3,3,1
1,2,6,1,2,1,2,0,2_1_3_2.bmp,2_2_3_2.bmp,2_3_3_0.bmp,1,1,0,0.34580989,145.38567,139.793683,146.2361412,3,3,0
1,2,7,1,2,1,2,0,2_1_3_2.bmp,2_2_3_2.bmp,2_3_3_0.bmp,1,1,0,0.317194783,147.4462161,139.793683,148.2680911,3,3,0
1,2,8,1,2,1,2,1,2_1_3_2.bmp,2_2_3_2.bmp,2_3_3_0.bmp,2,1,1,0.308735663,149.5027149,139.793683,150.3161017,3,3,0
1,2,9,1,2,1,4,0,4_3_5_2.bmp,4_2_3_2.bmp,4_2_3_3.bmp,1,2,1,0.553833826,151.5807132,152.0853153,156.6438642,3,3,1
1,2,10,1,2,1,4,0,4_3_5_2.bmp,4_2_3_2.bmp,4_3_5_3.bmp,2,1,1,0.435412749,157.6957511,152.0853153,158.6358327,3,3,0
1,2,11,1,2,1,4,0,4_3_5_2.bmp,4_2_3_2.bmp,4_3_3_0.bmp,1,2,1,0.444566531,159.7584851,152.0853153,160.7077241,3,3,0
1,2,12,1,2,1,4,1,4_3_5_2.bmp,4_2_3_2.bmp,4_3_3_0.bmp,1,2,1,0.46082887,161.8142791,152.0853153,162.7797011,3,3,0
1,2,13,1,2,1,2,0,2_4_4_0.bmp,2_2_5_1.bmp,2_4_5_1.bmp,2,1,1,0.44693565,163.8951083,164.3997813,168.8514198,3,3,1
1,2,14,1,2,1,2,0,2_4_4_0.bmp,2_2_5_1.bmp,2_2_5_3.bmp,1,1,0,0.361685238,170.0170336,164.3997813,170.8833213,3,3,0
1,2,15,1,2,1,2,0,2_4_4_0.bmp,2_2_5_1.bmp,2_4_5_1.bmp,2,1,1,0.583873108,172.0746974,164.3997813,173.1632294,3,3,0
1,2,16,1,2,1,2,1,2_4_4_0.bmp,2_2_5_1.bmp,2_4_5_1.bmp,2,1,1,0.4787218,174.1319381,164.3997813,175.115195,3,3,0
1,2,17,1,2,1,4,0,4_5_5_0.bmp,4_2_3_1.bmp,4_2_2_0.bmp,1,2,1,0.52648305,176.1990066,176.7038539,181.2350073,3,3,1
1,2,18,1,2,1,4,0,4_5_5_0.bmp,4_2_3_1.bmp,4_2_3_3.bmp,1,2,1,0.888151763,182.322226,176.7038539,183.7149708,3,3,0
1,2,19,1,2,1,4,0,4_5_5_0.bmp,4_2_3_1.bmp,4_3_5_1.bmp,2,2,0,0.528372937,184.385785,176.7038539,185.4187829,3,3,0
1,2,20,1,2,1,4,1,4_5_5_0.bmp,4_2_3_1.bmp,4_1_5_2.bmp,2,2,0,0.95523763,186.447024,176.7038539,187.9067997,3,3,0
1,2,21,1,2,1,2,0,2_4_4_0.bmp,2_2_2_0.bmp,2_2_3_1.bmp,1,2,1,0.689167434,188.5159126,189.0206782,193.7145123,3,3,1
1,2,22,1,2,1,2,0,2_4_4_0.bmp,2_2_2_0.bmp,2_2_4_1.bmp,1,2,1,0.456374867,194.6335233,189.0206782,195.5944384,3,3,0
1,2,23,1,2,1,2,0,2_4_4_0.bmp,2_2_2_0.bmp,2_2_5_1.bmp,1,2,1,0.388960598,196.6928685,189.0206782,197.5864012,3,3,0
1,2,24,1,2,1,2,1,2_4_4_0.bmp,2_2_2_0.bmp,2_4_5_2.bmp,2,1,1,0.519806252,198.7539211,189.0206782,199.7782721,3,3,0
1,2,25,1,2,1,1,0,1_3_5_3.bmp,1_3_3_0.bmp,1_3_4_1.bmp,1,2,1,1.01405667,200.8305087,201.3352479,206.3540446,3,3,1
1,2,26,1,2,1,1,0,1_3_5_3.bmp,1_3_3_0.bmp,1_3_5_2.bmp,2,2,0,0.556777121,206.9245818,201.3352479,207.9859785,3,3,0
1,2,27,1,2,1,1,0,1_3_5_3.bmp,1_3_3_0.bmp,1_3_5_2.bmp,1,1,0,0.620726498,208.9806168,201.3352479,210.1058985,3,3,0
1,2,28,1,2,1,1,1,1_3_5_3.bmp,1_3_3_0.bmp,1_3_5_2.bmp,1,1,0,0.434984295,211.0382403,201.3352479,211.977849,3,3,0
1,2,29,1,2,1,4,0,4_1_3_2.bmp,4_3_5_1.bmp,4_3_5_3.bmp,1,1,0,0.670621908,213.1166589,213.6223343,218.297646,3,3,1
1,2,30,1,2,1,4,0,4_1_3_2.bmp,4_3_5_1.bmp,4_3_5_3.bmp,1,1,0,0.506227011,219.2068714,213.6223343,220.2175632,3,3,0
1,3,1,2,2,2,1,0,1_1_3_3.bmp,1_2_2_0.bmp,1_1_3_2.bmp,2,1,1,0.807510692,237.372067,237.8767028,242.6888123,8,3,0
1,3,2,2,2,2,1,0,1_1_3_3.bmp,1_2_2_0.bmp,1_1_3_2.bmp,2,1,1,0.407565616,243.4326819,237.8767028,244.3447291,8,3,0
1,3,3,2,2,2,1,1,1_1_3_3.bmp,1_2_2_0.bmp,1_2_5_2.bmp,1,2,1,0.472862851,245.4952158,237.8767028,246.4727556,8,3,0
1,3,4,2,2,2,2,0,2_5_5_0.bmp,2_3_4_3.bmp,2_2_5_1.bmp,2,1,1,0.731207046,247.5755291,248.0806062,252.8164704,8,3,1
1,3,5,2,2,2,2,0,2_5_5_0.bmp,2_3_4_3.bmp,2_3_4_1.bmp,1,2,1,0.826957295,253.6687467,248.0806062,255.0003789,8,3,0
1,3,6,2,2,2,2,0,2_5_5_0.bmp,2_3_4_3.bmp,2_3_4_2.bmp,1,2,1,0.704074704,255.727658,248.0806062,256.936315,8,3,0
1,3,7,2,2,2,2,0,2_5_5_0.bmp,2_3_4_3.bmp,2_2_5_2.bmp,2,1,1,0.634062968,257.789649,248.0806062,258.9282384,8,3,0
1,3,8,2,2,2,2,1,2_5_5_0.bmp,2_3_4_3.bmp,2_4_5_1.bmp,2,2,0,0.6289116,259.8505941,248.0806062,260.9841745,8,3,0
1,3,9,2,2,2,4,0,4_4_4_0.bmp,4_1_3_2.bmp,4_3_3_0.bmp,1,1,0,0.719572375,261.9230795,262.4277859,267.1519604,8,3,1
1,3,10,2,2,2,4,0,4_4_4_0.bmp,4_1_3_2.bmp,4_4_5_1.bmp,2,1,1,0.546978255,267.9883773,262.4277859,269.0399067,8,3,0
1,3,11,2,2,2,4,0,4_4_4_0.bmp,4_1_3_2.bmp,4_4_5_1.bmp,2,1,1,0.408865101,270.0465693,262.4277859,270.9598965,8,3,0
1,3,12,2,2,2,4,1,4_4_4_0.bmp,4_1_3_2.bmp,4_3_3_0.bmp,1,1,0,0.455399277,272.1038566,262.4277859,273.0637742,8,3,0
1,3,13,2,2,2,3,1,3_3_3_0.bmp,3_1_5_3.bmp,3_3_4_1.bmp,2,1,1,0.432302699,274.2261798,274.7309685,279.1675942,8,3,1
1,3,14,2,2,2,4,0,4_3_3_0.bmp,4_1_2_3.bmp,4_1_2_2.bmp,1,2,1,0.558575668,280.2994262,280.8042198,285.3673255,8,3,1
1,3,15,2,2,2,4,0,4_3_3_0.bmp,4_1_2_3.bmp,4_1_2_1.bmp,1,2,1,0.511775286,286.3670139,280.8042198,287.3832032,8,3,0
1,3,16,2,2,2,4,0,4_3_3_0.bmp,4_1_2_3.bmp,4_3_4_2.bmp,2,2,0,0.538551884,288.4280752,280.8042198,289.4711791,8,3,0
1,3,17,2,2,2,4,0,4_3_3_0.bmp,4_1_2_3.bmp,4_1_2_2.bmp,1,2,1,0.450494285,290.5160932,280.8042198,291.4710995,8,3,0
1,3,18,2,2,2,4,0,4_3_3_0.bmp,4_1_2_3.bmp,4_1_2_1.bmp,1,2,1,0.457435487,292.5730316,280.8042198,293.5350074,8,3,0
1,3,19,2,2,2,4,0,4_3_3_0.bmp,4_1_2_3.bmp,4_3_4_1.bmp,2,1,1,0.426229823,294.6361154,280.8042198,295.56692,8,3,0
1,3,20,2,2,2,4,1,4_3_3_0.bmp,4_1_2_3.bmp,4_1_2_2.bmp,1,2,1,0.475789922,296.6905703,280.8042198,297.6708788,8,3,0
1,3,21,2,2,2,2,1,2_2_4_3.bmp,2_3_5_3.bmp,2_2_4_2.bmp,2,1,1,0.711239447,298.7620155,299.2667928,303.9825998,8,3,1
1,3,22,2,2,2,3,0,3_3_5_1.bmp,3_1_5_1.bmp,3_1_1_0.bmp,1,2,1,0.458826612,304.918493,305.4233055,309.8863923,8,3,1
1,3,23,2,2,2,3,0,3_3_5_1.bmp,3_1_5_1.bmp,3_3_5_3.bmp,2,1,1,0.443031186,311.0192246,305.4233055,311.9663624,8,3,0
1,3,24,2,2,2,3,0,3_3_5_1.bmp,3_1_5_1.bmp,3_3_5_3.bmp,2,1,1,0.45213419,313.0819895,305.4233055,314.0382304,8,3,0
1,3,25,2,2,2,3,0,3_3_5_1.bmp,3_1_5_1.bmp,3_3_5_3.bmp,2,2,0,0.740289618,315.209559,305.4233055,316.4541842,8,3,0
1,3,26,2,2,2,3,0,3_3_5_1.bmp,3_1_5_1.bmp,3_1_1_0.bmp,1,2,1,0.412131389,317.2737013,305.4233055,318.1900823,8,3,0
1,3,27,2,2,2,3,1,3_3_5_1.bmp,3_1_5_1.bmp,3_3_5_3.bmp,2,1,1,0.533187491,319.336502,305.4233055,320.3740083,8,3,0
1,3,28,2,2,2,1,0,1_2_2_0.bmp,1_1_3_3.bmp,1_1_3_2.bmp,1,1,0,0.673423988,321.4551896,321.9598497,326.6378124,8,3,1
1,3,29,2,2,2,1,0,1_2_2_0.bmp,1_1_3_3.bmp,1_1_3_1.bmp,1,2,1,0.629917236,327.5266396,321.9598497,328.6618022,8,3,0
1,3,30,2,2,2,1,0,1_2_2_0.bmp,1_1_3_3.bmp,1_2_5_1.bmp,2,1,1,0.583913069,329.5891239,321.9598497,330.677656,8,3,0
1,4,1,1,2,2,4,0,4_1_3_2.bmp,4_3_3_0.bmp,4_3_3_0.bmp,2,2,0,0.579085595,347.7485285,348.2532526,352.8369485,4,3,0
1,4,2,1,2,2,4,0,4_1_3_2.bmp,4_3_3_0.bmp,4_3_3_0.bmp,2,2,0,0.524310131,353.8079082,348.2532526,354.836855,4,3,0
1,4,3,1,2,2,4,0,4_1_3_2.bmp,4_3_3_0.bmp,4_1_3_3.bmp,2,2,0,0.536591089,355.8676082,348.2532526,356.9087506,4,3,0
1,4,4,1,2,2,4,1,4_1_3_2.bmp,4_3_3_0.bmp,4_3_3_0.bmp,2,2,0,0.520208266,357.9238917,348.2532526,358.9486912,4,3,0
1,4,5,1,2,2,1,0,1_1_4_1.bmp,1_3_3_0.bmp,1_1_4_3.bmp,2,1,1,0.939270942,360.0033498,360.5080857,365.4525134,4,3,1
1,4,6,1,2,2,1,0,1_1_4_1.bmp,1_3_3_0.bmp,1_1_4_3.bmp,2,1,1,0.482421651,366.0655773,360.5080857,367.052507,4,3,0
1,4,7,1,2,2,1,0,1_1_4_1.bmp,1_3_3_0.bmp,1_3_5_2.bmp,1,2,1,0.831098219,368.1325925,360.5080857,369.4682929,4,3,0
1,4,8,1,2,2,1,1,1_1_4_1.bmp,1_3_3_0.bmp,1_3_4_2.bmp,1,2,1,0.481100233,370.1938699,360.5080857,371.1802802,4,3,0
1,4,9,1,2,2,2,0,2_4_4_0.bmp,2_1_5_3.bmp,2_4_5_1.bmp,2,1,1,0.576872114,372.2619825,372.7666405,377.3480357,4,3,1
1,4,10,1,2,2,2,0,2_4_4_0.bmp,2_1_5_3.bmp,2_4_5_2.bmp,2,1,1,0.683823172,378.3276871,372.7666405,379.5159823,4,3,0
1,4,11,1,2,2,2,0,2_4_4_0.bmp,2_1_5_3.bmp,2_1_5_2.bmp,1,2,1,0.550423016,380.3890327,372.7666405,381.4440056,4,3,0
1,4,12,1,2,2,2,1,2_4_4_0.bmp,2_1_5_3.bmp,2_1_5_2.bmp,1,2,1,0.414293792,382.4449986,372.7666405,383.3638783,4,3,0
1,4,13,1,2,2,3,0,3_2_5_1.bmp,3_1_2_3.bmp,3_1_2_1.bmp,1,2,1,0.846190271,384.592286,385.0969996,389.9476042,4,3,1
1,4,14,1,2,2,3,0,3_2_5_1.bmp,3_1_2_3.bmp,3_2_5_3.bmp,2,2,0,0.66106431,390.6943723,385.0969996,391.8595424,4,3,0
1,4,15,1,2,2,3,0,3_2_5_1.bmp,3_1_2_3.bmp,3_2_5_3.bmp,2,2,0,0.429799876,392.7575059,385.0969996,393.6915008,4,3,0
1,4,16,1,2,2,3,1,3_2_5_1.bmp,3_1_2_3.bmp,3_1_2_2.bmp,1,2,1,0.581753671,394.8534382,385.0969996,395.9394182,4,3,0
1,4,17,1,2,2,2,0,2_1_3_2.bmp,2_3_3_0.bmp,2_3_3_0.bmp,2,2,0,0.60368627,396.9221463,397.4268923,402.0351342,4,3,1
1,4,18,1,2,2,2,0,2_1_3_2.bmp,2_3_3_0.bmp,2_1_3_3.bmp,2,2,0,0.435739348,402.9908438,397.4268923,403.9311778,4,3,0
1,4,19,1,2,2,2,0,2_1_3_2.bmp,2_3_3_0.bmp,2_3_5_2.bmp,1,1,0,0.558955749,405.0516537,397.4268923,406.1150421,4,3,0
1,4,20,1,2,2,2,1,2_1_3_2.bmp,2_3_3_0.bmp,2_3_3_0.bmp,2,2,0,0.574026468,407.1083659,397.4268923,408.1869392,4,3,0
1,4,21,1,2,2,4,0,4_2_2_0.bmp,4_1_1_0.bmp,4_2_5_2.bmp,2,1,1,0.475104575,409.1782533,409.6830765,414.1627775,4,3,1
1,4,22,1,2,2,4,0,4_2_2_0.bmp,4_1_1_0.bmp,4_1_4_1.bmp,1,2,1,0.441618128,415.2565135,409.6830765,416.202683,4,3,0
1,4,23,1,2,2,4,0,4_2_2_0.bmp,4_1_1_0.bmp,4_2_5_1.bmp,2,1,1,0.587374656,417.3267007,409.6830765,418.4185636,4,3,0
1,4,24,1,2,2,4,1,4_2_2_0.bmp,4_1_1_0.bmp,4_2_4_1.bmp,2,1,1,0.501189216,419.3968714,409.6830765,420.4024975,4,3,0
1,4,25,1,2,2,2,0,2_3_5_2.bmp,2_2_5_3.bmp,2_2_5_1.bmp,1,2,1,0.660790892,421.5041355,422.008872,426.6742995,4,3,1
1,4,26,1,2,2,2,0,2_3_5_2.bmp,2_2_5_3.bmp,2_3_5_3.bmp,2,1,1,0.471703079,427.5779099,422.008872,428.5542608,4,3,0
1,4,27,1,2,2,2,0,2_3_5_2.bmp,2_2_5_3.bmp,2_2_5_1.bmp,1,2,1,0.486203828,429.6433769,422.008872,430.6342003,4,3,0
1,4,28,1,2,2,2,1,2_3_5_2.bmp,2_2_5_3.bmp,2_3_5_3.bmp,2,1,1,0.396832622,431.7086438,422.008872,432.6101173,4,3,0
1,4,29,1,2,2,1,0,1_2_2_0.bmp,1_1_4_1.bmp,1_2_3_2.bmp,2,2,0,0.813708258,433.8386947,434.3436099,439.1619068,4,3,1
1,4,30,1,2,2,1,0,1_2_2_0.bmp,1_1_4_1.bmp,1_1_1_0.bmp,1,2,1,0.589873573,439.9154298,434.3436099,441.0098581,4,3,0
1,5,1,2,1,1,3,0,3_2_5_3.bmp,3_5_5_0.bmp,3_4_5_2.bmp,1,1,0,0.784685128,458.2033758,458.7080663,463.4970077,5,3,0
1,5,2,2,1,1,3,0,3_2_5_3.bmp,3_5_5_0.bmp,3_2_5_1.bmp,2,1,1,0.423676223,464.3290581,458.7080663,465.2569486,5,3,0
1,5,3,2,1,1,3,0,3_2_5_3.bmp,3_5_5_0.bmp,3_2_5_1.bmp,2,1,1,0.338098011,466.4065822,458.7080663,467.2488548,5,3,0
1,5,4,2,1,1,3,1,3_2_5_3.bmp,3_5_5_0.bmp,3_3_5_1.bmp,1,1,0,0.352194041,468.5196954,458.7080663,469.3767998,5,3,0
1,5,5,2,1,1,4,0,4_3_5_3.bmp,4_4_5_1.bmp,4_4_5_3.bmp,1,1,0,0.609337602,470.6979922,471.2027548,475.8166843,5,3,1
1,5,6,2,1,1,4,0,4_3_5_3.bmp,4_4_5_1.bmp,4_4_5_3.bmp,1,1,0,0.473332168,476.7665605,471.2027548,477.7445084,5,3,0
1,5,7,2,1,1,4,1,4_3_5_3.bmp,4_4_5_1.bmp,4_4_5_3.bmp,1,1,0,0.472909722,478.831039,471.2027548,479.8084803,5,3,0
1,5,8,2,1,1,1,0,1_2_2_0.bmp,1_5_5_0.bmp,1_2_4_1.bmp,2,1,1,0.48989767,480.905119,481.4099047,485.9043156,5,3,1
1,5,9,2,1,1,1,0,1_2_2_0.bmp,1_5_5_0.bmp,1_3_5_1.bmp,1,2,1,0.5075944,486.9801102,481.4099047,487.9922145,5,3,0
1,5,10,2,1,1,1,1,1_2_2_0.bmp,1_5_5_0.bmp,1_2_3_1.bmp,2,1,1,0.573138912,489.0503966,481.4099047,490.1280784,5,3,0
1,5,11,2,1,1,2,0,2_4_5_2.bmp,2_3_5_2.bmp,2_5_5_0.bmp,2,2,0,0.564219188,491.1262396,491.6309313,496.1998112,5,3,1
1,5,12,2,1,1,2,0,2_4_5_2.bmp,2_3_5_2.bmp,2_5_5_0.bmp,2,2,0,0.435827082,497.195432,491.6309313,498.1357684,5,3,0
1,5,13,2,1,1,2,0,2_4_5_2.bmp,2_3_5_2.bmp,2_3_5_3.bmp,1,2,1,0.314322997,499.2689669,491.6309313,500.0877073,5,3,0
1,5,14,2,1,1,2,0,2_4_5_2.bmp,2_3_5_2.bmp,2_5_5_0.bmp,1,2,1,0.313222115,501.3338615,491.6309313,502.151635,5,3,0
1,5,15,2,1,1,2,1,2_4_5_2.bmp,2_3_5_2.bmp,2_5_5_0.bmp,2,2,0,0.302404392,503.4006226,491.6309313,504.207563,5,3,0
1,5,16,2,1,1,3,0,3_1_4_2.bmp,3_4_4_0.bmp,3_4_5_1.bmp,1,2,1,0.604320539,505.5899084,506.0947446,510.7033239,5,3,1
1,5,17,2,1,1,3,0,3_1_4_2.bmp,3_4_4_0.bmp,3_4_5_2.bmp,1,1,0,0.403934269,511.699228,506.0947446,512.6073341,5,3,0
1,5,18,2,1,1,3,0,3_1_4_2.bmp,3_4_4_0.bmp,3_4_5_1.bmp,1,2,1,0.615005159,513.7759394,506.0947446,514.8952122,5,3,0
1,5,19,2,1,1,3,0,3_1_4_2.bmp,3_4_4_0.bmp,3_4_5_2.bmp,1,1,0,0.53010328,515.8528457,506.0947446,516.8871452,5,3,0
1,5,20,2,1,1,3,1,3_1_4_2.bmp,3_4_4_0.bmp,3_4_4_0.bmp,2,2,0,0.519481156,517.9834192,506.0947446,519.0071191,5,3,0
1,5,21,2,1,1,4,1,4_1_5_1.bmp,4_2_5_3.bmp,4_2_5_1.bmp,1,1,0,1.052976016,520.1005426,520.6052276,525.6628758,5,3,1
1,5,22,2,1,1,1,0,1_1_4_1.bmp,1_1_5_1.bmp,1_1_4_3.bmp,2,2,0,0.789770996,526.1876258,526.6923144,531.4866656,5,3,1
1,5,23,2,1,1,1,0,1_1_4_1.bmp,1_1_5_1.bmp,1_1_4_3.bmp,2,2,0,0.685730785,532.256439,526.6923144,533.4466571,5,3,0
1,5,24,2,1,1,1,0,1_1_4_1.bmp,1_1_5_1.bmp,1_1_5_3.bmp,1,2,1,0.742653629,534.3271135,526.6923144,535.5744844,5,3,0
1,5,25,2,1,1,1,1,1_1_4_1.bmp,1_1_5_1.bmp,1_1_1_0.bmp,1,1,0,0.632158058,536.3977607,526.6923144,537.5344197,5,3,0
1,5,26,2,1,1,2,0,2_1_4_1.bmp,2_3_3_0.bmp,2_1_1_0.bmp,2,0,0,NaN,538.4857018,538.9905301,NaN,5,3,1
1,5,27,2,1,1,2,0,2_1_4_1.bmp,2_3_3_0.bmp,2_3_5_1.bmp,1,1,0,0.661587709,544.5600422,538.9905301,545.7261735,5,3,0
1,5,28,2,1,1,2,0,2_1_4_1.bmp,2_3_3_0.bmp,2_3_5_2.bmp,1,1,0,0.377127625,546.6283311,538.9905301,547.5101137,5,3,0
1,5,29,2,1,1,2,0,2_1_4_1.bmp,2_3_3_0.bmp,2_3_4_1.bmp,1,1,0,0.553754805,548.6997953,538.9905301,549.7581017,5,3,0
1,5,30,2,1,1,2,0,2_1_4_1.bmp,2_3_3_0.bmp,2_1_4_3.bmp,2,2,0,0.444111035,550.7692989,538.9905301,551.717943,5,3,0
1,6,1,2,1,2,1,1,1_1_4_1.bmp,1_3_3_0.bmp,1_1_1_0.bmp,2,1,1,0.478705274,568.9532432,569.4578772,573.9411578,6,3,0
1,6,2,2,1,2,2,0,2_3_3_0.bmp,2_3_5_1.bmp,2_3_5_3.bmp,1,2,1,0.641126757,575.0384864,575.5432123,580.1889343,6,3,1
1,6,3,2,1,2,2,0,2_3_3_0.bmp,2_3_5_1.bmp,2_3_4_1.bmp,2,1,1,0.836842694,581.1115925,575.5432123,582.4529842,6,3,0
1,6,4,2,1,2,2,0,2_3_3_0.bmp,2_3_5_1.bmp,2_3_5_3.bmp,1,2,1,0.570372587,583.1780192,575.5432123,584.2527947,6,3,0
1,6,5,2,1,2,2,0,2_3_3_0.bmp,2_3_5_1.bmp,2_3_4_1.bmp,2,1,1,0.49781356,585.2422444,575.5432123,586.2446511,6,3,0
1,6,6,2,1,2,2,1,2_3_3_0.bmp,2_3_5_1.bmp,2_3_3_0.bmp,1,1,0,0.74493231,587.3070801,575.5432123,588.5566083,6,3,0
1,6,7,2,1,2,3,0,3_5_5_0.bmp,3_1_4_2.bmp,3_3_5_2.bmp,2,2,0,0.822195321,589.5133884,590.0180164,594.8445146,6,3,1
1,6,8,2,1,2,3,0,3_5_5_0.bmp,3_1_4_2.bmp,3_4_4_0.bmp,1,1,0,0.735252124,595.6288509,590.0180164,596.8683662,6,3,0
1,6,9,2,1,2,3,0,3_5_5_0.bmp,3_1_4_2.bmp,3_1_4_3.bmp,1,1,0,0.435205433,597.7368998,590.0180164,598.6763213,6,3,0
1,6,10,2,1,2,3,0,3_5_5_0.bmp,3_1_4_2.bmp,3_4_4_0.bmp,1,1,0,0.443490588,599.8160566,590.0180164,600.7641794,6,3,0
1,6,11,2,1,2,3,1,3_5_5_0.bmp,3_1_4_2.bmp,3_1_4_3.bmp,1,1,0,0.567213262,601.9246873,590.0180164,602.9961006,6,3,0
1,6,12,2,1,2,4,0,4_1_4_2.bmp,4_5_5_0.bmp,4_2_5_2.bmp,1,2,1,0.592419962,604.0455565,604.5509491,609.1478964,6,3,1
1,6,13,2,1,2,4,0,4_1_4_2.bmp,4_5_5_0.bmp,4_4_4_0.bmp,2,1,1,0.594191168,610.1211565,604.5509491,611.2199248,6,3,0
1,6,14,2,1,2,4,1,4_1_4_2.bmp,4_5_5_0.bmp,4_1_4_3.bmp,2,1,1,0.468818073,612.1904143,604.5509491,613.1637928,6,3,0
1,6,15,2,1,2,1,0,1_3_4_1.bmp,1_1_5_1.bmp,1_3_4_3.bmp,2,1,1,0.725476693,614.2967044,614.8014477,619.5315383,6,3,1
1,6,16,2,1,2,1,0,1_3_4_1.bmp,1_1_5_1.bmp,1_1_5_3.bmp,1,2,1,0.632947364,620.3700665,614.8014477,621.5075163,6,3,0
1,6,17,2,1,2,1,0,1_3_4_1.bmp,1_1_5_1.bmp,1_3_3_0.bmp,2,1,1,0.644776732,622.4381583,614.8014477,623.5873888,6,3,0
1,6,18,2,1,2,1,0,1_3_4_1.bmp,1_1_5_1.bmp,1_1_5_3.bmp,1,2,1,0.441417421,624.5054834,614.8014477,625.4513924,6,3,0
1,6,19,2,1,2,1,1,1_3_4_1.bmp,1_1_5_1.bmp,1_1_1_0.bmp,1,2,1,0.469875388,626.604883,614.8014477,627.5792734,6,3,0
1,6,20,2,1,2,2,0,2_2_2_0.bmp,2_4_4_0.bmp,2_2_5_2.bmp,2,2,0,0.720972513,628.6847882,629.1894393,633.9150434,6,3,1
1,6,21,2,1,2,2,0,2_2_2_0.bmp,2_4_4_0.bmp,2_4_5_1.bmp,1,2,1,0.526731229,634.7636329,629.1894393,635.7949515,6,3,0
1,6,22,2,1,2,2,0,2_2_2_0.bmp,2_4_4_0.bmp,2_4_5_1.bmp,1,1,0,0.540671321,636.8296888,629.1894393,637.874876,6,3,0
1,6,23,2,1,2,2,1,2_2_2_0.bmp,2_4_4_0.bmp,2_2_5_2.bmp,2,2,0,0.450212154,638.9280746,629.1894393,639.8828739,6,3,0
1,6,24,2,1,2,3,0,3_3_3_0.bmp,3_2_5_2.bmp,3_5_5_0.bmp,1,2,1,0.691717129,641.0898856,641.5946422,646.2905648,6,3,1
1,6,25,2,1,2,3,0,3_3_3_0.bmp,3_2_5_2.bmp,3_2_5_3.bmp,1,2,1,0.385528456,647.2007673,641.5946422,648.0905021,6,3,0
1,6,26,2,1,2,3,0,3_3_3_0.bmp,3_2_5_2.bmp,3_3_5_2.bmp,2,2,0,0.415244444,649.3068265,641.5946422,650.2264216,6,3,0
1,6,27,2,1,2,3,0,3_3_3_0.bmp,3_2_5_2.bmp,3_5_5_0.bmp,1,2,1,0.451918761,651.4063491,641.5946422,652.3623673,6,3,0
1,6,28,2,1,2,3,1,3_3_3_0.bmp,3_2_5_2.bmp,3_5_5_0.bmp,1,2,1,0.390008299,653.4841343,641.5946422,654.3784214,6,3,0
1,6,29,2,1,2,4,0,4_2_4_1.bmp,4_3_4_3.bmp,4_3_4_2.bmp,1,2,1,0.609957449,655.6109315,656.115692,660.7301374,6,3,1
1,6,30,2,1,2,4,0,4_2_4_1.bmp,4_3_4_3.bmp,4_3_4_2.bmp,1,2,1,0.431699979,661.7218042,656.115692,662.6580315,6,3,0
1,7,1,2,2,1,3,1,3_1_3_3.bmp,3_3_5_2.bmp,3_3_5_3.bmp,1,2,1,0.590995787,679.9411338,680.4459763,685.0412795,7,3,0
1,7,2,2,2,1,4,0,4_3_3_0.bmp,4_3_5_1.bmp,4_3_4_1.bmp,2,1,1,0.685860283,686.0938183,686.5984351,691.2889853,7,3,1
1,7,3,2,2,1,4,0,4_3_3_0.bmp,4_3_5_1.bmp,4_3_3_0.bmp,1,1,0,0.580944234,692.1634842,686.5984351,693.2490071,7,3,0
1,7,4,2,2,1,4,0,4_3_3_0.bmp,4_3_5_1.bmp,4_3_4_2.bmp,2,2,0,0.569324586,694.2309748,686.5984351,695.3048597,7,3,0
1,7,5,2,2,1,4,0,4_3_3_0.bmp,4_3_5_1.bmp,4_3_3_0.bmp,1,1,0,0.511553246,696.2968219,686.5984351,697.3128712,7,3,0
1,7,6,2,2,1,4,0,4_3_3_0.bmp,4_3_5_1.bmp,4_3_4_1.bmp,2,1,1,0.650358658,698.3978004,686.5984351,699.5527897,7,3,0
1,7,7,2,2,1,4,0,4_3_3_0.bmp,4_3_5_1.bmp,4_3_3_0.bmp,1,1,0,0.554001782,700.4620511,686.5984351,701.5206821,7,3,0
1,7,8,2,2,1,4,1,4_3_3_0.bmp,4_3_5_1.bmp,4_3_4_2.bmp,2,2,0,0.696778359,702.5273751,686.5984351,703.7286213,7,3,0
1,7,9,2,2,1,3,0,3_1_5_2.bmp,3_3_4_1.bmp,3_1_5_3.bmp,2,1,1,0.468413355,704.6949438,705.1996243,709.6723685,7,3,1
1,7,10,2,2,1,3,0,3_1_5_2.bmp,3_3_4_1.bmp,3_5_5_0.bmp,2,1,1,0.426832244,710.8534265,705.1996243,711.7842942,7,3,0
1,7,11,2,2,1,3,1,3_1_5_2.bmp,3_3_4_1.bmp,3_1_5_3.bmp,2,1,1,0.317568554,712.9305348,705.1996243,713.7522797,7,3,0
1,7,12,2,2,1,2,0,2_1_5_1.bmp,2_2_4_2.bmp,2_1_1_0.bmp,2,1,1,0.446668542,715.0120526,715.5167004,719.968002,7,3,1
1,7,13,2,2,1,2,0,2_1_5_1.bmp,2_2_4_2.bmp,2_4_4_0.bmp,1,2,1,0.409158048,721.0861356,715.5167004,721.9999369,7,3,0
1,7,14,2,2,1,2,0,2_1_5_1.bmp,2_2_4_2.bmp,2_1_5_3.bmp,2,1,1,0.46365048,723.183624,715.5167004,724.1518369,7,3,0
1,7,15,2,2,1,2,0,2_1_5_1.bmp,2_2_4_2.bmp,2_1_5_3.bmp,2,1,1,0.391272029,725.2479237,715.5167004,726.1437873,7,3,0
1,7,16,2,2,1,2,1,2_1_5_1.bmp,2_2_4_2.bmp,2_2_4_3.bmp,1,2,1,0.480889911,727.3181193,715.5167004,728.3036874,7,3,0
1,7,17,2,2,1,3,0,3_1_5_1.bmp,3_1_2_1.bmp,3_1_1_0.bmp,2,2,0,0.780213097,729.4943351,729.9989878,734.7834818,7,3,1
1,7,18,2,2,1,3,0,3_1_5_1.bmp,3_1_2_1.bmp,3_1_5_3.bmp,2,1,1,0.41954942,735.6036457,729.9989878,736.5273985,7,3,0
1,7,19,2,2,1,3,0,3_1_5_1.bmp,3_1_2_1.bmp,3_1_2_3.bmp,1,1,0,0.572610405,737.7145289,729.9989878,738.7913394,7,3,0
1,7,20,2,2,1,3,1,3_1_5_1.bmp,3_1_2_1.bmp,3_1_5_3.bmp,2,1,1,0.83215914,739.7908917,729.9989878,741.1272407,7,3,0
1,7,21,2,2,1,1,0,1_1_4_1.bmp,1_1_2_2.bmp,1_1_4_3.bmp,2,1,1,0.748203105,741.9177827,742.4224615,747.1750741,7,3,1
1,7,22,2,2,1,1,0,1_1_4_1.bmp,1_1_2_2.bmp,1_2_2_0.bmp,1,2,1,0.452816532,747.9936895,742.4224615,748.9509882,7,3,0
1,7,23,2,2,1,1,0,1_1_4_1.bmp,1_1_2_2.bmp,1_1_2_3.bmp,1,2,1,0.425321536,750.0690959,742.4224615,750.9989427,7,3,0
1,7,24,2,2,1,1,1,1_1_4_1.bmp,1_1_2_2.bmp,1_1_4_3.bmp,2,1,1,0.425833819,752.1325814,742.4224615,753.0628434,7,3,0
1,7,25,2,2,1,3,0,3_2_5_3.bmp,3_3_3_0.bmp,3_2_5_1.bmp,2,1,1,0.469165103,754.3005503,754.8052554,759.2787084,7,3,1
1,7,26,2,2,1,3,0,3_2_5_3.bmp,3_3_3_0.bmp,3_2_5_2.bmp,2,1,1,0.381881786,760.4164595,754.8052554,761.302566,7,3,0
1,7,27,2,2,1,3,1,3_2_5_3.bmp,3_3_3_0.bmp,3_3_5_2.bmp,1,1,0,0.364435939,762.5219002,754.8052554,763.3905572,7,3,0
1,7,28,2,2,1,1,0,1_2_2_0.bmp,1_1_3_2.bmp,1_1_3_3.bmp,1,1,0,1.170290502,764.6465948,765.1513592,770.3262437,7,3,1
1,7,29,2,2,1,1,0,1_2_2_0.bmp,1_1_3_2.bmp,1_3_3_0.bmp,1,2,1,0.543665995,770.7499608,765.1513592,771.7981499,7,3,0
1,7,30,2,2,1,1,0,1_2_2_0.bmp,1_1_3_2.bmp,1_2_3_2.bmp,2,1,1,0.746588439,772.8188743,765.1513592,774.0700607,7,3,0
1,8,1,1,1,1,3,0,3_1_1_0.bmp,3_5_5_0.bmp,3_1_5_1.bmp,2,1,1,0.4622233,791.0414633,791.5462109,796.0133302,1,3,0
1,8,2,1,1,1,3,0,3_1_1_0.bmp,3_5_5_0.bmp,3_1_5_1.bmp,1,1,0,0.432788241,797.124314,791.5462109,798.0612861,1,3,0
1,8,3,1,1,1,3,0,3_1_1_0.bmp,3_5_5_0.bmp,3_1_5_1.bmp,1,1,0,0.41786054,799.2031673,791.5462109,800.1251652,1,3,0
1,8,4,1,1,1,3,1,3_1_1_0.bmp,3_5_5_0.bmp,3_3_5_2.bmp,1,1,0,0.841238107,801.3075837,791.5462109,802.6531151,1,3,0
1,8,5,1,1,1,4,0,4_4_4_0.bmp,4_2_2_0.bmp,4_4_5_2.bmp,2,1,1,0.433947411,803.4375523,803.9422506,808.3809053,1,3,1
1,8,6,1,1,1,4,0,4_4_4_0.bmp,4_2_2_0.bmp,4_2_4_2.bmp,1,1,0,0.62647668,809.5138689,803.9422506,810.644847,1,3,0
1,8,7,1,1,1,4,0,4_4_4_0.bmp,4_2_2_0.bmp,4_4_5_1.bmp,2,2,0,0.632894783,811.5872121,803.9422506,812.7247604,1,3,0
1,8,8,1,1,1,4,1,4_4_4_0.bmp,4_2_2_0.bmp,4_2_4_1.bmp,1,1,0,0.665247599,813.6588235,803.9422506,814.8286882,1,3,0
1,8,9,1,1,1,1,0,1_1_1_0.bmp,1_1_4_1.bmp,1_1_1_0.bmp,1,1,0,0.99392442,815.7410065,816.2457625,821.2444483,1,3,1
1,8,10,1,1,1,1,0,1_1_1_0.bmp,1_1_4_1.bmp,1_1_1_0.bmp,1,1,0,0.505052217,821.8107526,816.2457625,822.8203992,1,3,0
1,8,11,1,1,1,1,0,1_1_1_0.bmp,1_1_4_1.bmp,1_1_1_0.bmp,1,1,0,0.402629677,823.8732604,816.2457625,824.7803838,1,3,0
1,8,12,1,1,1,1,1,1_1_1_0.bmp,1_1_4_1.bmp,1_1_2_1.bmp,2,1,1,0.403653941,825.9438893,816.2457625,826.8522331,1,3,0
1,8,13,1,1,1,2,0,2_4_4_0.bmp,2_3_4_1.bmp,2_4_5_1.bmp,2,2,0,0.721755509,828.0207827,828.5255447,833.2520406,1,3,1
1,8,14,1,1,1,2,0,2_4_4_0.bmp,2_3_4_1.bmp,2_4_5_1.bmp,2,1,1,0.616916679,834.0904234,828.5255447,835.2119485,1,3,0
1,8,15,1,1,1,2,0,2_4_4_0.bmp,2_3_4_1.bmp,2_4_5_1.bmp,2,1,1,0.424616359,836.1546982,828.5255447,837.0838548,1,3,0
1,8,16,1,1,1,2,1,2_4_4_0.bmp,2_3_4_1.bmp,2_4_5_1.bmp,2,1,1,0.375546309,838.2197289,828.5255447,839.0998025,1,3,0
1,8,17,1,1,1,3,0,3_3_3_0.bmp,3_3_5_1.bmp,3_3_3_0.bmp,1,1,0,0.569196591,840.3254658,840.8301319,845.4035737,1,3,1
1,8,18,1,1,1,3,0,3_3_3_0.bmp,3_3_5_1.bmp,3_3_4_2.bmp,2,2,0,0.598241354,846.4372377,840.8301319,847.539559,1,3,0
1,8,19,1,1,1,3,0,3_3_3_0.bmp,3_3_5_1.bmp,3_3_4_2.bmp,2,1,1,0.433833838,848.5132668,840.8301319,849.4514293,1,3,0
1,8,20,1,1,1,3,1,3_3_3_0.bmp,3_3_5_1.bmp,3_3_3_0.bmp,1,1,0,0.573373871,850.5897534,840.8301319,851.6673968,1,3,0
1,8,21,1,1,1,4,0,4_2_3_3.bmp,4_3_4_2.bmp,4_4_4_0.bmp,1,2,1,0.692613097,852.6653368,853.1700865,857.8671392,1,3,1
1,8,22,1,1,1,4,0,4_2_3_3.bmp,4_3_4_2.bmp,4_2_3_2.bmp,2,1,1,0.589857348,858.7407139,853.1700865,859.8350526,1,3,0
1,8,23,1,1,1,4,0,4_2_3_3.bmp,4_3_4_2.bmp,4_2_3_1.bmp,2,2,0,0.433515652,860.8089688,853.1700865,861.7470037,1,3,0
1,8,24,1,1,1,4,1,4_2_3_3.bmp,4_3_4_2.bmp,4_2_3_2.bmp,2,2,0,0.811626679,862.8707459,853.1700865,864.186886,1,3,0
1,8,25,1,1,1,1,0,1_1_3_3.bmp,1_3_4_2.bmp,1_1_3_2.bmp,2,1,1,0.695153778,864.9502725,865.4549687,870.1546901,1,3,1
1,8,26,1,1,1,1,0,1_1_3_3.bmp,1_3_4_2.bmp,1_1_3_2.bmp,2,1,1,0.622218877,871.0198471,865.4549687,872.1466465,1,3,0
1,8,27,1,1,1,1,0,1_1_3_3.bmp,1_3_4_2.bmp,1_1_3_2.bmp,2,1,1,0.382901544,873.0829636,865.4549687,873.9705613,1,3,0
1,8,28,1,1,1,1,1,1_1_3_3.bmp,1_3_4_2.bmp,1_1_3_2.bmp,2,1,1,0.335699748,875.1462279,865.4549687,875.9864739,1,3,0
1,8,29,1,1,1,2,0,2_4_4_0.bmp,2_1_5_2.bmp,2_5_5_0.bmp,1,2,1,0.652369329,877.2245816,877.729319,882.3862667,1,3,1
1,8,30,1,1,1,2,0,2_4_4_0.bmp,2_1_5_2.bmp,2_4_5_1.bmp,2,1,1,0.414404361,883.2993019,877.729319,884.2183026,1,3,0
2,1,1,1,1,1,4,0,4_3_5_1.bmp,4_2_4_1.bmp,4_2_4_3.bmp,1,2,1,1.118245909,16.16811127,16.67533461,21.80083419,1,1,0
2,1,2,1,1,1,4,0,4_3_5_1.bmp,4_2_4_1.bmp,4_2_4_3.bmp,1,2,1,0.737096641,22.27023065,16.67533461,23.51252763,1,1,0
2,1,3,1,1,1,4,0,4_3_5_1.bmp,4_2_4_1.bmp,4_3_5_3.bmp,2,1,1,0.84095868,24.33502221,16.67533461,25.6806335,1,1,0
2,1,4,1,1,1,4,1,4_3_5_1.bmp,4_2_4_1.bmp,4_3_3_0.bmp,2,1,1,0.767842903,26.39986185,16.67533461,27.67233302,1,1,0
2,1,5,1,1,1,1,0,1_2_5_3.bmp,1_2_4_3.bmp,1_2_4_2.bmp,1,2,1,0.839574466,28.48033887,28.98745374,33.83214862,1,1,1
2,1,6,1,1,1,1,0,1_2_5_3.bmp,1_2_4_3.bmp,1_2_4_2.bmp,1,2,1,0.937825735,34.58964673,28.98745374,36.03208961,1,1,0
2,1,7,1,1,1,1,0,1_2_5_3.bmp,1_2_4_3.bmp,1_2_4_1.bmp,1,2,1,1.106835981,36.65261961,28.98745374,38.26394956,1,1,0
2,1,8,1,1,1,1,1,1_2_5_3.bmp,1_2_4_3.bmp,1_2_5_1.bmp,2,1,1,0.819643524,38.71579801,28.98745374,40.03988562,1,1,0
2,1,9,1,1,1,2,0,2_1_4_1.bmp,2_2_5_3.bmp,2_1_1_0.bmp,2,2,0,1.146810238,40.78380358,41.28832278,46.43967867,1,1,1
2,1,10,1,1,1,2,0,2_1_4_1.bmp,2_2_5_3.bmp,2_1_4_3.bmp,2,1,1,0.623755124,46.88733241,41.28832278,48.01563618,1,1,0
2,1,11,1,1,1,2,0,2_1_4_1.bmp,2_2_5_3.bmp,2_1_4_3.bmp,2,1,1,1.407274771,48.94362549,41.28832278,50.85553394,1,1,0
2,1,12,1,1,1,2,1,2_1_4_1.bmp,2_2_5_3.bmp,2_1_1_0.bmp,2,1,1,1.261862569,51.00117419,41.28832278,52.76746102,1,1,0
2,1,13,1,1,1,3,0,3_2_2_0.bmp,3_3_5_3.bmp,3_2_5_2.bmp,2,2,0,1.20382322,53.14240431,53.64710048,58.85522327,1,1,1
2,1,14,1,1,1,3,0,3_2_2_0.bmp,3_3_5_3.bmp,3_3_5_2.bmp,1,1,0,1.056727245,59.29412795,53.64710048,60.85519953,1,1,0
2,1,15,1,1,1,3,0,3_2_2_0.bmp,3_3_5_3.bmp,3_3_5_1.bmp,1,1,0,1.039706548,61.39909027,53.64710048,62.9431051,1,1,0
2,1,16,1,1,1,3,1,3_2_2_0.bmp,3_3_5_3.bmp,3_2_5_2.bmp,2,2,0,0.983267743,63.4705391,53.64710048,64.95900929,1,1,0
2,1,17,1,1,1,4,0,4_4_4_0.bmp,4_2_4_1.bmp,4_2_4_3.bmp,1,1,0,1.003780374,65.54179654,66.04642751,71.05482234,1,1,1
2,1,18,1,1,1,4,0,4_4_4_0.bmp,4_2_4_1.bmp,4_4_5_1.bmp,2,2,0,0.82390343,71.63834391,66.04642751,72.96678246,1,1,0
2,1,19,1,1,1,4,0,4_4_4_0.bmp,4_2_4_1.bmp,4_2_2_0.bmp,1,2,1,0.945839275,73.70040189,66.04642751,75.15075526,1,1,0
2,1,20,1,1,1,4,1,4_4_4_0.bmp,4_2_4_1.bmp,4_2_2_0.bmp,1,2,1,0.817254575,75.75678241,66.04642751,77.07861598,1,1,0
2,1,21,1,1,1,1,0,1_1_4_3.bmp,1_3_4_3.bmp,1_3_4_2.bmp,1,2,1,1.194887271,77.83029119,78.33493057,83.53445543,1,1,1
2,1,22,1,1,1,1,0,1_1_4_3.bmp,1_3_4_3.bmp,1_3_4_2.bmp,1,2,1,1.117864026,83.92803288,78.33493057,85.55035812,1,1,0
2,1,23,1,1,1,1,0,1_1_4_3.bmp,1_3_4_3.bmp,1_3_4_1.bmp,1,2,1,1.111564303,85.99012872,78.33493057,87.6062573,1,1,0
2,1,24,1,1,1,1,1,1_1_4_3.bmp,1_3_4_3.bmp,1_1_4_1.bmp,2,1,1,0.59294877,88.05280295,78.33493057,89.1502583,1,1,0
2,1,25,1,1,1,2,0,2_1_4_1.bmp,2_3_4_2.bmp,2_1_4_3.bmp,2,2,0,1.496608119,90.12824698,90.63275477,96.1339518,1,1,1
2,1,26,1,1,1,2,0,2_1_4_1.bmp,2_3_4_2.bmp,2_1_4_3.bmp,2,2,0,0.969765119,96.18761586,90.63275477,97.66195427,1,1,0
2,1,27,1,1,1,2,0,2_1_4_1.bmp,2_3_4_2.bmp,2_1_1_0.bmp,2,2,0,1.293918531,98.24658964,90.63275477,100.0458197,1,1,0
2,1,28,1,1,1,2,1,2_1_4_1.bmp,2_3_4_2.bmp,2_3_4_3.bmp,1,2,1,1.138599897,100.3065522,90.63275477,101.9497491,1,1,0
2,1,29,1,1,1,3,0,3_3_5_3.bmp,3_3_3_0.bmp,3_3_5_1.bmp,2,2,0,1.130403979,102.4942014,102.9988087,108.1335756,1,1,1
2,1,30,1,1,1,3,0,3_3_5_3.bmp,3_3_3_0.bmp,3_3_5_1.bmp,2,2,0,0.755818537,108.5692378,102.9988087,109.8294424,1,1,0
2,2,1,2,2,2,2,0,2_3_3_0.bmp,2_1_3_1.bmp,2_1_3_3.bmp,1,1,0,1.184782837,126.7181846,127.2231028,132.4126653,8,1,0
2,2,2,2,2,2,2,0,2_3_3_0.bmp,2_1_3_1.bmp,2_1_3_3.bmp,1,1,0,0.808306307,132.7797152,127.2231028,134.0926087,8,1,0
2,2,3,2,2,2,2,1,2_3_3_0.bmp,2_1_3_1.bmp,2_1_3_3.bmp,1,1,0,0.832065998,134.8359278,127.2231028,136.1725418,8,1,0
2,2,4,2,2,2,3,0,3_1_5_2.bmp,3_4_5_3.bmp,3_4_5_1.bmp,1,1,0,1.27441424,136.9807622,137.4854734,142.7643053,8,1,1
2,2,5,2,2,2,3,0,3_1_5_2.bmp,3_4_5_3.bmp,3_1_5_3.bmp,2,2,0,0.833051503,143.123034,137.4854734,144.4603439,8,1,0
2,2,6,2,2,2,3,0,3_1_5_2.bmp,3_4_5_3.bmp,3_4_5_2.bmp,1,2,1,0.987674274,145.216322,137.4854734,146.7082048,8,1,0
2,2,7,2,2,2,3,1,3_1_5_2.bmp,3_4_5_3.bmp,3_5_5_0.bmp,2,2,0,0.818982814,147.3128595,137.4854734,148.6360745,8,1,0
2,2,8,2,2,2,1,0,1_1_2_3.bmp,1_1_1_0.bmp,1_1_4_1.bmp,1,2,1,1.172796329,149.3856381,149.8903379,155.0679037,8,1,1
2,2,9,2,2,2,1,0,1_1_2_3.bmp,1_1_1_0.bmp,1_1_3_2.bmp,1,2,1,0.9221556,155.4969314,149.8903379,156.9238463,8,1,0
2,2,10,2,2,2,1,0,1_1_2_3.bmp,1_1_1_0.bmp,1_1_3_1.bmp,1,2,1,1.003002786,157.5600001,149.8903379,159.0677502,8,1,0
2,2,11,2,2,2,1,1,1_1_2_3.bmp,1_1_1_0.bmp,1_1_5_1.bmp,1,2,1,1.08546524,159.6217198,149.8903379,161.2117406,8,1,0
2,2,12,2,2,2,3,0,3_5_5_0.bmp,3_1_4_3.bmp,3_2_5_2.bmp,2,0,0,NaN,161.7413322,162.2460353,NaN,8,1,1
2,2,13,2,2,2,3,0,3_5_5_0.bmp,3_1_4_3.bmp,3_1_4_1.bmp,1,2,1,1.174646555,167.8923831,162.2460353,169.5713981,8,1,0
2,2,14,2,2,2,3,0,3_5_5_0.bmp,3_1_4_3.bmp,3_3_5_1.bmp,2,2,0,0.861256183,169.9818213,162.2460353,171.34736,8,1,0
2,2,15,2,2,2,3,0,3_5_5_0.bmp,3_1_4_3.bmp,3_1_4_1.bmp,1,2,1,1.335585273,172.0514506,162.2460353,173.8912477,8,1,0
2,2,16,2,2,2,3,1,3_5_5_0.bmp,3_1_4_3.bmp,3_1_4_2.bmp,1,1,0,1.300004026,174.14308,162.2460353,175.9472025,8,1,0
2,2,17,2,2,2,1,0,1_2_2_0.bmp,1_1_1_0.bmp,1_2_4_1.bmp,2,1,1,1.440059347,176.2614846,176.7662345,182.2109411,8,1,1
2,2,18,2,2,2,1,0,1_2_2_0.bmp,1_1_1_0.bmp,1_1_3_2.bmp,1,2,1,1.11524793,182.3269903,176.7662345,183.9468704,8,1,0
2,2,19,2,2,2,1,1,1_2_2_0.bmp,1_1_1_0.bmp,1_2_3_2.bmp,2,0,0,NaN,184.3895729,176.7662345,NaN,8,1,0
2,2,20,2,2,2,2,0,2_3_4_3.bmp,2_2_2_0.bmp,2_2_5_1.bmp,1,2,1,0.933395168,186.4638945,186.9686516,191.9065762,8,1,1
2,2,21,2,2,2,2,0,2_3_4_3.bmp,2_2_2_0.bmp,2_3_4_1.bmp,2,1,1,0.997184099,192.5327635,186.9686516,194.0345263,8,1,0
2,2,22,2,2,2,2,1,2_3_4_3.bmp,2_2_2_0.bmp,2_2_3_1.bmp,1,2,1,1.063862243,194.5940683,186.9686516,196.1623791,8,1,0
2,2,23,2,2,2,4,0,4_1_1_0.bmp,4_4_5_2.bmp,4_4_5_3.bmp,1,2,1,1.01628247,196.6686858,197.1733531,202.1941857,8,1,1
2,2,24,2,2,2,4,0,4_1_1_0.bmp,4_4_5_2.bmp,4_4_5_3.bmp,1,2,1,0.933998189,202.7635343,197.1733531,204.2021863,8,1,0
2,2,25,2,2,2,4,0,4_1_1_0.bmp,4_4_5_2.bmp,4_1_4_2.bmp,2,1,1,0.696564132,204.8249475,197.1733531,206.0260897,8,1,0
2,2,26,2,2,2,4,0,4_1_1_0.bmp,4_4_5_2.bmp,4_5_5_0.bmp,1,2,1,0.731999957,206.8855946,197.1733531,208.1220122,8,1,0
2,2,27,2,2,2,4,1,4_1_1_0.bmp,4_4_5_2.bmp,4_4_5_3.bmp,1,2,1,0.684125734,208.941248,197.1733531,210.129989,8,1,0
2,2,28,2,2,2,3,0,3_3_5_3.bmp,3_1_1_0.bmp,3_3_5_1.bmp,2,0,0,NaN,211.0681225,211.5732991,NaN,8,1,1
2,2,29,2,2,2,3,0,3_3_5_3.bmp,3_1_1_0.bmp,3_1_5_2.bmp,1,1,0,1.073219736,217.1683844,211.5732991,218.7456684,8,1,0
2,2,30,2,2,2,3,0,3_3_5_3.bmp,3_1_1_0.bmp,3_3_5_1.bmp,2,1,1,1.099230164,219.2380894,211.5732991,220.8415785,8,1,0
2,3,1,2,1,1,1,0,1_1_1_0.bmp,1_1_4_3.bmp,1_1_4_2.bmp,1,2,1,0.977751918,237.4017424,237.9064719,242.8887746,5,1,0
2,3,2,2,1,1,1,0,1_1_1_0.bmp,1_1_4_3.bmp,1_1_5_1.bmp,2,1,1,1.363164698,243.4690122,237.9064719,245.336681,5,1,0
2,3,3,2,1,1,1,1,1_1_1_0.bmp,1_1_4_3.bmp,1_1_5_2.bmp,2,1,1,1.350221528,245.5299383,237.9064719,247.3846079,5,1,0
2,3,4,2,1,1,2,0,2_2_3_1.bmp,2_3_3_0.bmp,2_3_5_2.bmp,1,2,1,1.070999044,247.6040186,248.1088734,253.184465,5,1,1
2,3,5,2,1,1,2,0,2_2_3_1.bmp,2_3_3_0.bmp,2_2_2_0.bmp,2,1,1,0.618409959,253.6685644,248.1088734,254.792336,5,1,0
2,3,6,2,1,1,2,0,2_2_3_1.bmp,2_3_3_0.bmp,2_3_5_1.bmp,1,2,1,1.059370382,255.732469,248.1088734,257.296275,5,1,0
2,3,7,2,1,1,2,0,2_2_3_1.bmp,2_3_3_0.bmp,2_3_4_2.bmp,1,2,1,1.220850828,257.7948845,248.1088734,259.5202416,5,1,0
2,3,8,2,1,1,2,1,2_2_3_1.bmp,2_3_3_0.bmp,2_3_5_1.bmp,1,2,1,1.164928211,259.8507254,248.1088734,261.5201274,5,1,0
2,3,9,2,1,1,3,0,3_1_1_0.bmp,3_5_5_0.bmp,3_4_5_2.bmp,1,2,1,1.235362092,261.9993369,262.5042542,267.7440709,5,1,1
2,3,10,2,1,1,3,1,3_1_1_0.bmp,3_5_5_0.bmp,3_1_5_2.bmp,2,2,0,1.023355273,268.0963025,262.5042542,269.6238957,5,1,0
2,3,11,2,1,1,4,0,4_4_4_0.bmp,4_1_1_0.bmp,4_1_2_2.bmp,1,2,1,1.041772203,270.2167517,270.7213986,275.7677314,5,1,1
2,3,12,2,1,1,4,0,4_4_4_0.bmp,4_1_1_0.bmp,4_4_5_2.bmp,2,1,1,0.699494808,276.2835148,270.7213986,277.4876319,5,1,0
2,3,13,2,1,1,4,1,4_4_4_0.bmp,4_1_1_0.bmp,4_1_5_2.bmp,1,1,0,1.156002478,278.3471313,270.7213986,280.0074709,5,1,0
2,3,14,2,1,1,1,0,1_1_4_1.bmp,1_2_4_3.bmp,1_2_4_1.bmp,1,1,0,1.096913626,280.4170772,280.9217656,286.023291,5,1,1
2,3,15,2,1,1,1,0,1_1_4_1.bmp,1_2_4_3.bmp,1_2_4_1.bmp,1,1,0,0.728562707,286.5260904,280.9217656,287.759199,5,1,0
2,3,16,2,1,1,1,0,1_1_4_1.bmp,1_2_4_3.bmp,1_1_4_3.bmp,2,0,0,NaN,288.5860154,280.9217656,NaN,5,1,0
2,3,17,2,1,1,1,0,1_1_4_1.bmp,1_2_4_3.bmp,1_2_4_1.bmp,1,2,1,1.124789604,290.6418533,280.9217656,292.2710055,5,1,0
2,3,18,2,1,1,1,1,1_1_4_1.bmp,1_2_4_3.bmp,1_1_1_0.bmp,2,2,0,0.927933426,292.7024561,280.9217656,294.1349574,5,1,0
2,3,19,2,1,1,2,0,2_4_5_3.bmp,2_1_1_0.bmp,2_4_5_2.bmp,2,2,0,1.125446707,294.7801876,295.284863,300.414743,5,1,1
2,3,20,2,1,1,2,0,2_4_5_3.bmp,2_1_1_0.bmp,2_4_5_1.bmp,2,2,0,1.239144269,300.847277,295.284863,302.5907704,5,1,0
2,3,21,2,1,1,2,0,2_4_5_3.bmp,2_1_1_0.bmp,2_1_5_1.bmp,1,2,1,1.305258752,302.9088083,295.284863,304.7186286,5,1,0
2,3,22,2,1,1,2,1,2_4_5_3.bmp,2_1_1_0.bmp,2_4_5_2.bmp,2,1,1,0.896939285,304.965169,295.284863,306.3666167,5,1,0
2,3,23,2,1,1,3,0,3_3_4_3.bmp,3_4_5_2.bmp,3_3_4_2.bmp,2,1,1,1.243982559,307.085443,307.5902984,312.8384087,5,1,1
2,3,24,2,1,1,3,0,3_3_4_3.bmp,3_4_5_2.bmp,3_5_5_0.bmp,1,2,1,1.211700051,313.186274,307.5902984,314.9022643,5,1,0
2,3,25,2,1,1,3,0,3_3_4_3.bmp,3_4_5_2.bmp,3_3_4_2.bmp,2,1,1,1.145768847,315.2521184,307.5902984,316.9021607,5,1,0
2,3,26,2,1,1,3,0,3_3_4_3.bmp,3_4_5_2.bmp,3_4_5_3.bmp,1,1,0,1.49116771,317.346829,307.5902984,319.3421987,5,1,0
2,3,27,2,1,1,3,0,3_3_4_3.bmp,3_4_5_2.bmp,3_3_4_2.bmp,2,1,1,1.029392995,319.4162927,307.5902984,320.9500673,5,1,0
2,3,28,2,1,1,3,1,3_3_4_3.bmp,3_4_5_2.bmp,3_3_4_2.bmp,2,1,1,1.244555534,321.4812568,307.5902984,323.2299824,5,1,0
2,3,29,2,1,1,4,0,4_2_3_2.bmp,4_1_5_1.bmp,4_1_1_0.bmp,1,2,1,0.731777918,323.6046147,324.1094109,328.8457339,5,1,1
2,3,30,2,1,1,4,0,4_2_3_2.bmp,4_1_5_1.bmp,4_1_1_0.bmp,1,2,1,1.027476367,329.6657148,324.1094109,331.1976437,5,1,0
2,4,1,1,2,2,4,0,4_1_2_3.bmp,4_1_5_1.bmp,4_1_1_0.bmp,1,2,1,0.769676304,347.870123,348.3747372,353.1488933,4,1,0
2,4,2,1,2,2,4,0,4_1_2_3.bmp,4_1_5_1.bmp,4_1_2_1.bmp,2,2,0,0.812542778,353.9357757,348.3747372,355.2528644,4,1,0
2,4,3,1,2,2,4,0,4_1_2_3.bmp,4_1_5_1.bmp,4_1_1_0.bmp,1,2,1,0.892756296,355.9916043,348.3747372,357.3887713,4,1,0
2,4,4,1,2,2,4,1,4_1_2_3.bmp,4_1_5_1.bmp,4_1_1_0.bmp,1,2,1,0.771721527,358.0485139,348.3747372,359.3246816,4,1,0
2,4,5,1,2,2,3,0,3_1_3_2.bmp,3_2_2_0.bmp,3_3_3_0.bmp,2,2,0,1.314274022,360.2135124,360.7180839,366.0364427,4,1,1
2,4,6,1,2,2,3,0,3_1_3_2.bmp,3_2_2_0.bmp,3_2_4_2.bmp,1,1,0,0.943243009,366.332776,360.7180839,367.7803594,4,1,0
2,4,7,1,2,2,3,0,3_1_3_2.bmp,3_2_2_0.bmp,3_2_4_2.bmp,1,1,0,0.782340347,368.3977286,360.7180839,369.6844142,4,1,0
2,4,8,1,2,2,3,1,3_1_3_2.bmp,3_2_2_0.bmp,3_3_3_0.bmp,2,2,0,1.104846342,370.5073036,360.7180839,372.1162974,4,1,0
2,4,9,1,2,2,1,0,1_1_4_2.bmp,1_3_5_3.bmp,1_3_5_1.bmp,1,2,1,1.278796734,372.6319871,373.1366779,378.419998,4,1,1
2,4,10,1,2,2,1,0,1_1_4_2.bmp,1_3_5_3.bmp,1_1_4_3.bmp,2,1,1,0.783836933,378.6997478,373.1366779,379.987951,4,1,0
2,4,11,1,2,2,1,0,1_1_4_2.bmp,1_3_5_3.bmp,1_3_5_2.bmp,1,2,1,1.057503331,380.7618382,373.1366779,382.3238578,4,1,0
2,4,12,1,2,2,1,1,1_1_4_2.bmp,1_3_5_3.bmp,1_3_5_1.bmp,1,1,0,1.167152809,382.8602127,373.1366779,384.5318147,4,1,0
2,4,13,1,2,2,3,0,3_1_2_1.bmp,3_2_3_2.bmp,3_3_3_0.bmp,1,2,1,1.079839146,385.006513,385.5112633,390.5955637,4,1,1
2,4,14,1,2,2,3,0,3_1_2_1.bmp,3_2_3_2.bmp,3_1_2_3.bmp,2,2,0,1.110517204,391.1248461,385.5112633,392.7395403,4,1,0
2,4,15,1,2,2,3,0,3_1_2_1.bmp,3_2_3_2.bmp,3_3_3_0.bmp,1,2,1,0.902413346,393.1889839,385.5112633,394.5954699,4,1,0
2,4,16,1,2,2,3,1,3_1_2_1.bmp,3_2_3_2.bmp,3_1_1_0.bmp,2,1,1,0.734119694,395.2852866,385.5112633,396.5233805,4,1,0
2,4,17,1,2,2,4,0,4_1_1_0.bmp,4_3_5_2.bmp,4_1_2_2.bmp,2,2,0,1.137854158,397.3560258,397.8606832,403.0031272,4,1,1
2,4,18,1,2,2,4,0,4_1_1_0.bmp,4_3_5_2.bmp,4_5_5_0.bmp,1,2,1,1.373223462,403.429284,397.8606832,405.3070423,4,1,0
2,4,19,1,2,2,4,0,4_1_1_0.bmp,4_3_5_2.bmp,4_1_5_1.bmp,2,1,1,0.705566783,405.4969882,397.8606832,406.7070778,4,1,0
2,4,20,1,2,2,4,1,4_1_1_0.bmp,4_3_5_2.bmp,4_1_3_1.bmp,2,1,1,0.501489976,407.6210002,397.8606832,408.6269923,4,1,0
2,4,21,1,2,2,2,0,2_2_2_0.bmp,2_1_3_3.bmp,2_2_3_1.bmp,2,1,1,1.128424556,409.7008793,410.2056698,415.3388167,4,1,1
2,4,22,1,2,2,2,0,2_2_2_0.bmp,2_1_3_3.bmp,2_2_5_1.bmp,2,1,1,1.129644118,415.7764366,410.2056698,417.4106168,4,1,0
2,4,23,1,2,2,2,0,2_2_2_0.bmp,2_1_3_3.bmp,2_1_3_2.bmp,1,2,1,1.01420059,417.8437554,410.2056698,419.3625662,4,1,0
2,4,24,1,2,2,2,1,2_2_2_0.bmp,2_1_3_3.bmp,2_1_3_2.bmp,1,2,1,0.750573426,419.9394593,410.2056698,421.1944976,4,1,0
2,4,25,1,2,2,4,0,4_1_2_2.bmp,4_1_3_2.bmp,4_2_2_0.bmp,2,2,0,1.055666325,422.0293182,422.5340312,427.5943083,4,1,1
2,4,26,1,2,2,4,0,4_1_2_2.bmp,4_1_3_2.bmp,4_3_3_0.bmp,1,2,1,0.89156738,428.1021551,422.5340312,429.4982618,4,1,0
2,4,27,1,2,2,4,0,4_1_2_2.bmp,4_1_3_2.bmp,4_2_2_0.bmp,2,2,0,1.028254556,430.1653278,422.5340312,431.6982188,4,1,0
2,4,28,1,2,2,4,1,4_1_2_2.bmp,4_1_3_2.bmp,4_2_2_0.bmp,2,1,1,0.701558661,432.2521115,422.5340312,433.4581064,4,1,0
2,4,29,1,2,2,2,0,2_1_5_1.bmp,2_1_4_2.bmp,2_4_4_0.bmp,1,2,1,1.166717444,434.3339315,434.8386079,440.0098304,4,1,1
2,4,30,1,2,2,2,0,2_1_5_1.bmp,2_1_4_2.bmp,2_4_4_0.bmp,1,2,1,0.844829493,440.4043119,434.8386079,441.7537619,4,1,0
2,5,1,2,1,2,3,0,3_1_3_3.bmp,3_2_2_0.bmp,3_1_3_2.bmp,2,1,1,0.981486322,458.6145428,459.1192047,464.1049927,6,1,0
2,5,2,2,1,2,3,1,3_1_3_3.bmp,3_2_2_0.bmp,3_2_3_2.bmp,1,1,0,1.269160115,464.7236451,459.1192047,466.4969978,6,1,0
2,5,3,2,1,2,4,0,4_3_3_0.bmp,4_1_3_3.bmp,4_3_5_2.bmp,2,1,1,1.458568217,466.8805547,467.3853142,472.8487273,6,1,1
2,5,4,2,1,2,4,0,4_3_3_0.bmp,4_1_3_3.bmp,4_3_5_1.bmp,2,2,0,1.081456216,472.9581533,467.3853142,474.5446194,6,1,0
2,5,5,2,1,2,4,0,4_3_3_0.bmp,4_1_3_3.bmp,4_3_4_2.bmp,2,1,1,1.340826478,475.0272787,467.3853142,476.8725676,6,1,0
2,5,6,2,1,2,4,0,4_3_3_0.bmp,4_1_3_3.bmp,4_1_3_1.bmp,1,1,0,1.361706871,477.0942894,467.3853142,478.9604449,6,1,0
2,5,7,2,1,2,4,0,4_3_3_0.bmp,4_1_3_3.bmp,4_3_5_1.bmp,2,2,0,1.273874316,479.1901001,467.3853142,480.968401,6,1,0
2,5,8,2,1,2,4,1,4_3_3_0.bmp,4_1_3_3.bmp,4_3_4_1.bmp,2,2,0,1.479576906,481.2561989,467.3853142,483.2403161,6,1,0
2,5,9,2,1,2,1,0,1_1_2_1.bmp,1_1_3_3.bmp,1_1_2_3.bmp,2,1,1,1.035041923,483.3357734,483.8404867,488.880122,6,1,1
2,5,10,2,1,2,1,0,1_1_2_1.bmp,1_1_3_3.bmp,1_1_1_0.bmp,2,2,0,1.067647425,489.4039012,483.8404867,490.9760312,6,1,0
2,5,11,2,1,2,1,1,1_1_2_1.bmp,1_1_3_3.bmp,1_1_2_3.bmp,2,1,1,0.922087997,491.509356,483.8404867,492.9360329,6,1,0
2,5,12,2,1,2,2,0,2_1_3_2.bmp,2_2_2_0.bmp,2_2_3_1.bmp,1,1,0,1.155665964,493.5910958,494.0956947,499.2558011,6,1,1
2,5,13,2,1,2,2,0,2_1_3_2.bmp,2_2_2_0.bmp,2_2_4_2.bmp,1,0,0,NaN,499.6634139,494.0956947,NaN,6,1,0
2,5,14,2,1,2,2,0,2_1_3_2.bmp,2_2_2_0.bmp,2_1_3_3.bmp,2,1,1,1.394715589,501.7321962,494.0956947,503.6316479,6,1,0
2,5,15,2,1,2,2,0,2_1_3_2.bmp,2_2_2_0.bmp,2_2_5_1.bmp,1,2,1,1.475877656,503.8432863,494.0956947,505.8235336,6,1,0
2,5,16,2,1,2,2,1,2_1_3_2.bmp,2_2_2_0.bmp,2_3_3_0.bmp,2,0,0,NaN,505.9112562,494.0956947,NaN,6,1,0
2,5,17,2,1,2,3,0,3_2_5_1.bmp,3_3_5_2.bmp,3_3_5_3.bmp,1,2,1,1.386196376,508.0721155,508.5768523,513.9672932,6,1,1
2,5,18,2,1,2,3,1,3_2_5_1.bmp,3_3_5_2.bmp,3_5_5_0.bmp,1,2,1,1.016627697,514.1826682,508.5768523,515.7034924,6,1,0
2,5,19,2,1,2,4,0,4_1_4_2.bmp,4_2_3_3.bmp,4_2_3_2.bmp,1,2,1,0.987795659,516.3259321,516.8307314,521.8230288,6,1,1
2,5,20,2,1,2,4,0,4_1_4_2.bmp,4_2_3_3.bmp,4_1_4_3.bmp,2,1,1,0.525276708,522.401064,516.8307314,523.430935,6,1,0
2,5,21,2,1,2,4,1,4_1_4_2.bmp,4_2_3_3.bmp,4_2_3_2.bmp,1,2,1,1.071324141,524.4629438,516.8307314,526.0388196,6,1,0
2,5,22,2,1,2,1,0,1_1_3_2.bmp,1_3_4_3.bmp,1_3_3_0.bmp,2,0,0,NaN,526.5677526,527.0725326,NaN,6,1,1
2,5,23,2,1,2,1,0,1_1_3_2.bmp,1_3_4_3.bmp,1_3_4_1.bmp,1,2,1,0.791023309,532.6472429,527.0725326,533.9426018,6,1,0
2,5,24,2,1,2,1,0,1_1_3_2.bmp,1_3_4_3.bmp,1_3_4_1.bmp,1,1,0,0.80746382,534.7106007,527.0725326,536.0224518,6,1,0
2,5,25,2,1,2,1,1,1_1_3_2.bmp,1_3_4_3.bmp,1_3_3_0.bmp,2,2,0,1.176791531,536.7732677,527.0725326,538.4544456,6,1,0
2,5,26,2,1,2,2,0,2_1_4_3.bmp,2_1_2_1.bmp,2_1_4_1.bmp,2,2,0,1.162600256,538.902206,539.4069247,544.5741578,6,1,1
2,5,27,2,1,2,2,0,2_1_4_3.bmp,2_1_2_1.bmp,2_1_4_1.bmp,2,2,0,1.136269538,544.9734536,539.4069247,546.6141726,6,1,0
2,5,28,2,1,2,2,0,2_1_4_3.bmp,2_1_2_1.bmp,2_1_1_0.bmp,1,2,1,0.83213931,547.0373443,539.4069247,548.3740759,6,1,0
2,5,29,2,1,2,2,0,2_1_4_3.bmp,2_1_2_1.bmp,2_1_2_3.bmp,1,1,0,0.512245504,549.1091261,539.4069247,550.1259644,6,1,0
2,5,30,2,1,2,2,0,2_1_4_3.bmp,2_1_2_1.bmp,2_1_4_1.bmp,2,2,0,1.087792895,551.2055322,539.4069247,552.7978879,6,1,0
2,6,1,2,2,1,2,0,2_1_5_1.bmp,2_2_4_1.bmp,2_2_4_3.bmp,1,0,0,NaN,569.3969898,569.9017448,NaN,7,1,0
2,6,2,2,2,1,2,0,2_1_5_1.bmp,2_2_4_1.bmp,2_1_1_0.bmp,2,0,0,NaN,575.5010723,569.9017448,NaN,7,1,0
2,6,3,2,2,1,2,0,2_1_5_1.bmp,2_2_4_1.bmp,2_1_1_0.bmp,2,1,1,0.700342403,577.5681471,569.9017448,578.7730036,7,1,0
2,6,4,2,2,1,2,1,2_1_5_1.bmp,2_2_4_1.bmp,2_2_2_0.bmp,1,2,1,0.661524012,579.6388904,569.9017448,580.8049249,7,1,0
2,6,5,2,2,1,1,0,1_3_5_1.bmp,1_3_4_3.bmp,1_3_4_1.bmp,1,2,1,1.371050242,581.7160834,582.220965,587.5966399,7,1,1
2,6,6,2,2,1,1,0,1_3_5_1.bmp,1_3_4_3.bmp,1_3_4_1.bmp,1,2,1,1.206483483,587.813583,582.220965,589.5246908,7,1,0
2,6,7,2,2,1,1,1,1_3_5_1.bmp,1_3_4_3.bmp,1_3_4_1.bmp,1,1,0,0.562125891,589.8818343,582.220965,590.9486143,7,1,0
2,6,8,2,2,1,2,0,2_2_3_2.bmp,2_2_2_0.bmp,2_2_5_1.bmp,1,1,0,1.0889094,591.9578354,592.4626965,597.5563394,7,1,1
2,6,9,2,2,1,2,0,2_2_3_2.bmp,2_2_2_0.bmp,2_3_3_0.bmp,2,1,1,0.850506063,598.0332614,592.4626965,599.3882795,7,1,0
2,6,10,2,2,1,2,0,2_2_3_2.bmp,2_2_2_0.bmp,2_2_3_1.bmp,1,2,1,0.911271777,600.1564688,592.4626965,601.5722189,7,1,0
2,6,11,2,2,1,2,1,2_2_3_2.bmp,2_2_2_0.bmp,2_2_4_1.bmp,1,2,1,1.164831464,602.222525,592.4626965,603.8920631,7,1,0
2,6,12,2,2,1,4,0,4_1_1_0.bmp,4_1_5_2.bmp,4_1_4_1.bmp,2,1,1,1.339494844,604.298971,604.803797,610.1478522,7,1,1
2,6,13,2,2,1,4,0,4_1_1_0.bmp,4_1_5_2.bmp,4_5_5_0.bmp,1,2,1,1.299961061,610.5114646,604.803797,612.315834,7,1,0
